"","Trial","ID","correct","RT","coherence","conf","dotDirection","referenceSelection","mistake","type","kmed","corAdjusted","group","environment","CCD"
"1",1,"5cb9a316531e2200010b7d42",1,469,0.2,100,3.142,1,0,"calibration","kmed x 2",1,"NT (Online)","Computer",0
"2",2,"5cb9a316531e2200010b7d42",1,468,0.2,0,0,2,0,"calibration","kmed x 2",1,"NT (Online)","Computer",0
"3",3,"5cb9a316531e2200010b7d42",1,815,0.2,0,3.142,1,0,"calibration","kmed x 2",1,"NT (Online)","Computer",0
"4",4,"5cb9a316531e2200010b7d42",1,515,0.2,0,3.142,1,0,"calibration","kmed x 2",1,"NT (Online)","Computer",0
"5",5,"5cb9a316531e2200010b7d42",1,435,0.19,0,0,2,0,"calibration","kmed",1,"NT (Online)","Computer",0
"6",6,"5cb9a316531e2200010b7d42",1,512,0.19,100,0,2,0,"calibration","kmed",1,"NT (Online)","Computer",0
"7",7,"5cb9a316531e2200010b7d42",1,485,0.18,0,0,2,0,"calibration","kmed",1,"NT (Online)","Computer",0
"8",8,"5cb9a316531e2200010b7d42",1,452,0.18,0,3.142,1,0,"calibration","kmed",1,"NT (Online)","Computer",0
"9",9,"5cb9a316531e2200010b7d42",1,432,0.17,0,0,2,0,"calibration","kmed",1,"NT (Online)","Computer",0
"10",10,"5cb9a316531e2200010b7d42",1,509,0.17,0,0,2,0,"calibration","kmed",1,"NT (Online)","Computer",0
"11",11,"5cb9a316531e2200010b7d42",1,500,0.16,100,3.142,1,0,"calibration","kmed",1,"NT (Online)","Computer",0
"12",12,"5cb9a316531e2200010b7d42",1,514,0.16,0,0,2,0,"calibration","kmed",1,"NT (Online)","Computer",0
"13",13,"5cb9a316531e2200010b7d42",1,479,0.15,0,0,2,0,"calibration","kmed",1,"NT (Online)","Computer",0
"14",14,"5cb9a316531e2200010b7d42",1,710,0.15,0,0,2,0,"calibration","kmed",1,"NT (Online)","Computer",0
"15",15,"5cb9a316531e2200010b7d42",1,750,0.14,0,3.142,1,0,"calibration","kmed",1,"NT (Online)","Computer",0
"16",16,"5cb9a316531e2200010b7d42",1,604,0.14,100,3.142,1,0,"calibration","kmed",1,"NT (Online)","Computer",0
"17",17,"5cb9a316531e2200010b7d42",1,571,0.13,0,0,2,0,"calibration","kmed",1,"NT (Online)","Computer",0
"18",18,"5cb9a316531e2200010b7d42",1,501,0.13,0,0,2,0,"calibration","kmed",1,"NT (Online)","Computer",0
"19",19,"5cb9a316531e2200010b7d42",1,642,0.12,0,0,2,0,"calibration","kmed",1,"NT (Online)","Computer",0
"20",20,"5cb9a316531e2200010b7d42",1,517,0.12,0,3.142,1,0,"calibration","kmed",1,"NT (Online)","Computer",0
"21",21,"5cb9a316531e2200010b7d42",1,557,0.11,100,3.142,1,0,"calibration","kmed",1,"NT (Online)","Computer",0
"22",22,"5cb9a316531e2200010b7d42",1,480,0.11,0,0,2,0,"calibration","kmed",1,"NT (Online)","Computer",0
"23",23,"5cb9a316531e2200010b7d42",1,593,0.1,0,0,2,0,"calibration","kmed",1,"NT (Online)","Computer",0
"24",24,"5cb9a316531e2200010b7d42",1,516,0.1,0,3.142,1,0,"calibration","kmed",1,"NT (Online)","Computer",0
"25",25,"5cb9a316531e2200010b7d42",1,613,0.09,0,3.142,1,0,"calibration","kmed",1,"NT (Online)","Computer",0
"26",26,"5cb9a316531e2200010b7d42",1,851,0.09,90,3.142,1,0,"calibration","kmed",1,"NT (Online)","Computer",0
"27",27,"5cb9a316531e2200010b7d42",1,920,0.08,0,3.142,1,0,"calibration","kmed",1,"NT (Online)","Computer",0
"28",28,"5cb9a316531e2200010b7d42",1,630,0.08,0,0,2,0,"calibration","kmed",1,"NT (Online)","Computer",0
"29",29,"5cb9a316531e2200010b7d42",1,660,0.07,0,3.142,1,0,"calibration","kmed",1,"NT (Online)","Computer",0
"30",30,"5cb9a316531e2200010b7d42",1,936,0.07,0,0,2,0,"calibration","kmed",1,"NT (Online)","Computer",0
"31",31,"5cb9a316531e2200010b7d42",1,2746,0.06,50,0,2,0,"calibration","kmed",1,"NT (Online)","Computer",0
"32",32,"5cb9a316531e2200010b7d42",1,930,0.06,0,3.142,1,0,"calibration","kmed",1,"NT (Online)","Computer",0
"33",33,"5cb9a316531e2200010b7d42",1,741,0.05,0,3.142,1,0,"calibration","kmed",1,"NT (Online)","Computer",0
"34",34,"5cb9a316531e2200010b7d42",1,697,0.05,0,0,2,0,"calibration","kmed",1,"NT (Online)","Computer",0
"35",35,"5cb9a316531e2200010b7d42",1,730,0.04,0,0,2,0,"calibration","kmed",1,"NT (Online)","Computer",0
"36",36,"5cb9a316531e2200010b7d42",1,758,0.04,60,0,2,0,"calibration","kmed",1,"NT (Online)","Computer",0
"37",37,"5cb9a316531e2200010b7d42",1,643,0.03,0,0,2,0,"calibration","kmed",1,"NT (Online)","Computer",0
"38",38,"5cb9a316531e2200010b7d42",1,818,0.03,0,0,2,0,"calibration","kmed",1,"NT (Online)","Computer",0
"39",39,"5cb9a316531e2200010b7d42",1,828,0.02,0,0,2,0,"calibration","kmed",1,"NT (Online)","Computer",0
"40",40,"5cb9a316531e2200010b7d42",1,2531,0.02,0,3.142,1,0,"calibration","kmed",1,"NT (Online)","Computer",0
"41",41,"5cb9a316531e2200010b7d42",1,709,0.01,50,3.142,1,0,"calibration","kmed",1,"NT (Online)","Computer",0
"42",42,"5cb9a316531e2200010b7d42",1,1574,0.01,0,0,2,0,"calibration","kmed",1,"NT (Online)","Computer",0
"43",43,"5cb9a316531e2200010b7d42",0,1063,0,0,3.142,2,0,"calibration","kmed x 0.5",0,"NT (Online)","Computer",0
"44",44,"5cb9a316531e2200010b7d42",0,1578,0.01,0,3.142,2,0,"calibration","kmed",0,"NT (Online)","Computer",0
"45",45,"5cb9a316531e2200010b7d42",1,1356,0.02,0,0,2,0,"calibration","kmed",1,"NT (Online)","Computer",0
"46",46,"5cb9a316531e2200010b7d42",1,495,0.02,90,0,2,0,"calibration","kmed",1,"NT (Online)","Computer",0
"47",47,"5cb9a316531e2200010b7d42",0,730,0.01,0,0,1,0,"calibration","kmed",0,"NT (Online)","Computer",0
"48",48,"5cb9a316531e2200010b7d42",1,1367,0.02,0,3.142,1,0,"calibration","kmed",1,"NT (Online)","Computer",0
"49",49,"5cb9a316531e2200010b7d42",0,1099,0.02,0,3.142,2,0,"calibration","kmed",0,"NT (Online)","Computer",0
"50",50,"5cb9a316531e2200010b7d42",1,633,0.03,0,0,2,0,"calibration","kmed",1,"NT (Online)","Computer",0
"51",51,"5cb9a316531e2200010b7d42",1,594,0.03,70,3.142,1,0,"calibration","kmed",1,"NT (Online)","Computer",0
"52",52,"5cb9a316531e2200010b7d42",1,756,0.02,0,0,2,0,"calibration","kmed",1,"NT (Online)","Computer",0
"53",53,"5cb9a316531e2200010b7d42",1,896,0.02,0,3.142,1,0,"calibration","kmed",1,"NT (Online)","Computer",0
"54",54,"5cb9a316531e2200010b7d42",0,1078,0.01,0,0,1,0,"calibration","kmed",0,"NT (Online)","Computer",0
"55",55,"5cb9a316531e2200010b7d42",0,933,0.02,0,0,1,0,"calibration","kmed",0,"NT (Online)","Computer",0
"56",56,"5cb9a316531e2200010b7d42",1,1216,0.03,50,3.142,1,0,"calibration","kmed",1,"NT (Online)","Computer",0
"57",57,"5cb9a316531e2200010b7d42",1,913,0.03,0,0,2,0,"calibration","kmed",1,"NT (Online)","Computer",0
"58",58,"5cb9a316531e2200010b7d42",0,1179,0.02,0,3.142,2,0,"calibration","kmed",0,"NT (Online)","Computer",0
"59",59,"5cb9a316531e2200010b7d42",0,745,0.03,0,3.142,2,0,"calibration","kmed",0,"NT (Online)","Computer",0
"60",60,"5cb9a316531e2200010b7d42",1,731,0.04,0,0,2,0,"calibration","kmed",1,"NT (Online)","Computer",0
"61",61,"5cb9a316531e2200010b7d42",1,630,0.04,70,3.142,1,0,"calibration","kmed",1,"NT (Online)","Computer",0
"62",62,"5cb9a316531e2200010b7d42",1,1248,0.03,0,3.142,1,0,"calibration","kmed",1,"NT (Online)","Computer",0
"63",63,"5cb9a316531e2200010b7d42",0,1060,0.03,0,3.142,2,0,"calibration","kmed",0,"NT (Online)","Computer",0
"64",64,"5cb9a316531e2200010b7d42",1,860,0.04,0,0,2,0,"calibration","kmed",1,"NT (Online)","Computer",0
"65",65,"5cb9a316531e2200010b7d42",0,639,0.04,0,3.142,2,0,"calibration","kmed",0,"NT (Online)","Computer",0
"66",66,"5cb9a316531e2200010b7d42",1,1068,0.05,50,0,2,0,"calibration","kmed",1,"NT (Online)","Computer",0
"67",67,"5cb9a316531e2200010b7d42",1,496,0.05,0,0,2,0,"calibration","kmed",1,"NT (Online)","Computer",0
"68",68,"5cb9a316531e2200010b7d42",0,679,0.04,0,0,1,0,"calibration","kmed",0,"NT (Online)","Computer",0
"69",69,"5cb9a316531e2200010b7d42",0,782,0.05,0,3.142,2,0,"calibration","kmed",0,"NT (Online)","Computer",0
"70",70,"5cb9a316531e2200010b7d42",1,535,0.06,0,3.142,1,0,"calibration","kmed",1,"NT (Online)","Computer",0
"71",71,"5cb9a316531e2200010b7d42",1,515,0.06,100,0,2,0,"calibration","kmed",1,"NT (Online)","Computer",0
"72",72,"5cb9a316531e2200010b7d42",1,554,0.05,0,3.142,1,0,"calibration","kmed",1,"NT (Online)","Computer",0
"73",73,"5cb9a316531e2200010b7d42",1,519,0.05,0,3.142,1,0,"calibration","kmed",1,"NT (Online)","Computer",0
"74",74,"5cb9a316531e2200010b7d42",1,1144,0.04,0,3.142,1,0,"calibration","kmed",1,"NT (Online)","Computer",0
"75",75,"5cb9a316531e2200010b7d42",1,1631,0.04,0,3.142,1,0,"calibration","kmed",1,"NT (Online)","Computer",0
"76",76,"5cb9a316531e2200010b7d42",1,635,0.03,70,0,2,0,"calibration","kmed",1,"NT (Online)","Computer",0
"77",77,"5cb9a316531e2200010b7d42",0,829,0.03,0,3.142,2,0,"calibration","kmed",0,"NT (Online)","Computer",0
"78",78,"5cb9a316531e2200010b7d42",1,787,0.04,0,0,2,0,"calibration","kmed",1,"NT (Online)","Computer",0
"79",79,"5cb9a316531e2200010b7d42",1,626,0.04,0,3.142,1,0,"calibration","kmed",1,"NT (Online)","Computer",0
"80",80,"5cb9a316531e2200010b7d42",1,495,0.03,0,0,2,0,"calibration","kmed",1,"NT (Online)","Computer",0
"81",81,"5cb9a316531e2200010b7d42",1,674,0.03,100,0,2,0,"calibration","kmed",1,"NT (Online)","Computer",0
"82",82,"5cb9a316531e2200010b7d42",1,453,0.02,0,3.142,1,0,"calibration","kmed",1,"NT (Online)","Computer",0
"83",83,"5cb9a316531e2200010b7d42",1,853,0.02,0,0,2,0,"calibration","kmed",1,"NT (Online)","Computer",0
"84",84,"5cb9a316531e2200010b7d42",1,650,0.01,0,0,2,0,"calibration","kmed",1,"NT (Online)","Computer",0
"85",85,"5cb9a316531e2200010b7d42",0,829,0.01,0,0,1,0,"calibration","kmed",0,"NT (Online)","Computer",0
"86",86,"5cb9a316531e2200010b7d42",1,858,0.02,60,0,2,0,"calibration","kmed",1,"NT (Online)","Computer",0
"87",87,"5cb9a316531e2200010b7d42",1,601,0.02,0,3.142,1,0,"calibration","kmed",1,"NT (Online)","Computer",0
"88",88,"5cb9a316531e2200010b7d42",1,2476,0.01,0,3.142,1,0,"calibration","kmed",1,"NT (Online)","Computer",0
"89",89,"5cb9a316531e2200010b7d42",1,695,0.01,0,3.142,1,0,"calibration","kmed",1,"NT (Online)","Computer",0
"90",90,"5cb9a316531e2200010b7d42",0,913,0,0,3.142,2,0,"calibration","kmed x 0.5",0,"NT (Online)","Computer",0
"91",91,"5cb9a316531e2200010b7d42",0,1113,0.01,50,0,1,0,"calibration","kmed",0,"NT (Online)","Computer",0
"92",92,"5cb9a316531e2200010b7d42",0,1163,0.02,0,3.142,2,0,"calibration","kmed",0,"NT (Online)","Computer",0
"93",93,"5cb9a316531e2200010b7d42",0,1477,0.03,0,3.142,2,0,"calibration","kmed",0,"NT (Online)","Computer",0
"94",94,"5cb9a316531e2200010b7d42",0,605,0.04,0,3.142,2,0,"calibration","kmed",0,"NT (Online)","Computer",0
"95",95,"5cb9a316531e2200010b7d42",1,551,0.05,0,3.142,1,0,"calibration","kmed",1,"NT (Online)","Computer",0
"96",96,"5cb9a316531e2200010b7d42",1,525,0.05,100,3.142,1,0,"calibration","kmed",1,"NT (Online)","Computer",0
"97",97,"5cb9a316531e2200010b7d42",1,750,0.04,0,0,2,0,"calibration","kmed",1,"NT (Online)","Computer",0
"98",98,"5cb9a316531e2200010b7d42",1,583,0.04,0,0,2,0,"calibration","kmed",1,"NT (Online)","Computer",0
"99",99,"5cb9a316531e2200010b7d42",1,1283,0.03,0,0,2,0,"calibration","kmed",1,"NT (Online)","Computer",0
"100",100,"5cb9a316531e2200010b7d42",0,681,0.03,0,0,1,0,"calibration","kmed",0,"NT (Online)","Computer",0
"101",101,"5cb9a316531e2200010b7d42",0,476,0.04,70,0,1,0,"calibration","kmed",0,"NT (Online)","Computer",0
"102",102,"5cb9a316531e2200010b7d42",1,448,0.05,0,3.142,1,0,"calibration","kmed",1,"NT (Online)","Computer",0
"103",103,"5cb9a316531e2200010b7d42",1,516,0.05,0,3.142,1,0,"calibration","kmed",1,"NT (Online)","Computer",0
"104",104,"5cb9a316531e2200010b7d42",1,426,0.04,0,0,2,0,"calibration","kmed",1,"NT (Online)","Computer",0
"105",105,"5cb9a316531e2200010b7d42",1,563,0.04,0,3.142,1,0,"calibration","kmed",1,"NT (Online)","Computer",0
"106",106,"5cb9a316531e2200010b7d42",0,750,0.03,60,0,1,0,"calibration","kmed",0,"NT (Online)","Computer",0
"107",107,"5cb9a316531e2200010b7d42",1,422,0.04,0,0,2,0,"calibration","kmed",1,"NT (Online)","Computer",0
"108",108,"5cb9a316531e2200010b7d42",1,466,0.04,0,3.142,1,0,"calibration","kmed",1,"NT (Online)","Computer",0
"109",109,"5cb9a316531e2200010b7d42",0,463,0.03,0,3.142,2,0,"calibration","kmed",0,"NT (Online)","Computer",0
"110",110,"5cb9a316531e2200010b7d42",1,469,0.04,0,3.142,1,0,"calibration","kmed",1,"NT (Online)","Computer",0
"111",111,"5cb9a316531e2200010b7d42",1,628,0.04,70,0,2,0,"calibration","kmed",1,"NT (Online)","Computer",0
"112",112,"5cb9a316531e2200010b7d42",1,715,0.03,0,3.142,1,0,"calibration","kmed",1,"NT (Online)","Computer",0
"113",113,"5cb9a316531e2200010b7d42",1,694,0.03,0,0,2,0,"calibration","kmed",1,"NT (Online)","Computer",0
"114",114,"5cb9a316531e2200010b7d42",0,718,0.02,0,3.142,2,0,"calibration","kmed",0,"NT (Online)","Computer",0
"115",115,"5cb9a316531e2200010b7d42",0,984,0.03,0,0,1,0,"calibration","kmed",0,"NT (Online)","Computer",0
"116",116,"5cb9a316531e2200010b7d42",0,726,0.04,50,3.142,2,0,"calibration","kmed",0,"NT (Online)","Computer",0
"117",117,"5cb9a316531e2200010b7d42",1,567,0.05,0,0,2,0,"calibration","kmed",1,"NT (Online)","Computer",0
"118",118,"5cb9a316531e2200010b7d42",1,431,0.05,0,0,2,0,"calibration","kmed",1,"NT (Online)","Computer",0
"119",119,"5cb9a316531e2200010b7d42",1,582,0.04,0,0,2,0,"calibration","kmed",1,"NT (Online)","Computer",0
"120",120,"5cb9a316531e2200010b7d42",0,563,0.04,0,3.142,2,0,"calibration","kmed",0,"NT (Online)","Computer",0
"121",121,"5cb9a316531e2200010b7d42",1,491,0.36,100,0,2,0,"main","kmed x 2",1,"NT (Online)","Computer",0
"122",122,"5cb9a316531e2200010b7d42",0,446,0.24,0,3.142,1,0,"main","kmed",1,"NT (Online)","Computer",0
"123",123,"5cb9a316531e2200010b7d42",0,425,0.36,0,3.142,1,0,"main","kmed x 2",1,"NT (Online)","Computer",0
"124",124,"5cb9a316531e2200010b7d42",0,463,0.24,0,3.142,1,0,"main","kmed",1,"NT (Online)","Computer",0
"125",125,"5cb9a316531e2200010b7d42",0,538,0.06,0,3.142,1,0,"main","kmed x 0.5",1,"NT (Online)","Computer",0
"126",126,"5cb9a316531e2200010b7d42",1,518,0.24,100,0,2,0,"main","kmed",1,"NT (Online)","Computer",0
"127",127,"5cb9a316531e2200010b7d42",1,466,0.24,0,0,2,0,"main","kmed",1,"NT (Online)","Computer",0
"128",128,"5cb9a316531e2200010b7d42",0,399,0.36,0,3.142,1,0,"main","kmed x 2",1,"NT (Online)","Computer",0
"129",129,"5cb9a316531e2200010b7d42",1,466,0.36,0,0,2,0,"main","kmed x 2",1,"NT (Online)","Computer",0
"130",130,"5cb9a316531e2200010b7d42",0,423,0.36,0,3.142,1,0,"main","kmed x 2",1,"NT (Online)","Computer",0
"131",131,"5cb9a316531e2200010b7d42",0,460,0.36,100,3.142,1,0,"main","kmed x 2",1,"NT (Online)","Computer",0
"132",132,"5cb9a316531e2200010b7d42",0,435,0.36,0,3.142,1,0,"main","kmed x 2",1,"NT (Online)","Computer",0
"133",133,"5cb9a316531e2200010b7d42",1,421,0.36,0,0,2,0,"main","kmed x 2",1,"NT (Online)","Computer",0
"134",134,"5cb9a316531e2200010b7d42",1,431,0.36,0,0,2,0,"main","kmed x 2",1,"NT (Online)","Computer",0
"135",135,"5cb9a316531e2200010b7d42",1,506,0.06,0,0,2,0,"main","kmed x 0.5",1,"NT (Online)","Computer",0
"136",136,"5cb9a316531e2200010b7d42",0,750,0.06,70,3.142,1,0,"main","kmed x 0.5",1,"NT (Online)","Computer",0
"137",137,"5cb9a316531e2200010b7d42",0,649,0.06,0,3.142,1,0,"main","kmed x 0.5",1,"NT (Online)","Computer",0
"138",138,"5cb9a316531e2200010b7d42",0,714,0.06,0,3.142,1,0,"main","kmed x 0.5",1,"NT (Online)","Computer",0
"139",139,"5cb9a316531e2200010b7d42",1,525,0.24,0,0,2,0,"main","kmed",1,"NT (Online)","Computer",0
"140",140,"5cb9a316531e2200010b7d42",1,470,0.24,0,0,2,0,"main","kmed",1,"NT (Online)","Computer",0
"141",141,"5cb9a316531e2200010b7d42",0,454,0.24,100,3.142,1,0,"main","kmed",1,"NT (Online)","Computer",0
"142",142,"5cb9a316531e2200010b7d42",1,455,0.36,0,0,2,0,"main","kmed x 2",1,"NT (Online)","Computer",0
"143",143,"5cb9a316531e2200010b7d42",1,475,0.24,0,0,2,0,"main","kmed",1,"NT (Online)","Computer",0
"144",144,"5cb9a316531e2200010b7d42",0,422,0.36,0,3.142,1,0,"main","kmed x 2",1,"NT (Online)","Computer",0
"145",145,"5cb9a316531e2200010b7d42",0,428,0.24,0,3.142,1,0,"main","kmed",1,"NT (Online)","Computer",0
"146",146,"5cb9a316531e2200010b7d42",0,430,0.24,100,3.142,1,0,"main","kmed",1,"NT (Online)","Computer",0
"147",147,"5cb9a316531e2200010b7d42",1,426,0.06,0,0,2,0,"main","kmed x 0.5",1,"NT (Online)","Computer",0
"148",148,"5cb9a316531e2200010b7d42",1,530,0.06,0,3.142,2,0,"main","kmed x 0.5",0,"NT (Online)","Computer",0
"149",149,"5cb9a316531e2200010b7d42",1,451,0.24,0,0,2,0,"main","kmed",1,"NT (Online)","Computer",0
"150",150,"5cb9a316531e2200010b7d42",1,450,0.06,0,0,2,0,"main","kmed x 0.5",1,"NT (Online)","Computer",0
"151",151,"5cb9a316531e2200010b7d42",0,399,0.24,100,3.142,1,0,"main","kmed",1,"NT (Online)","Computer",0
"152",152,"5cb9a316531e2200010b7d42",0,408,0.24,0,3.142,1,0,"main","kmed",1,"NT (Online)","Computer",0
"153",153,"5cb9a316531e2200010b7d42",1,456,0.06,0,0,2,0,"main","kmed x 0.5",1,"NT (Online)","Computer",0
"154",154,"5cb9a316531e2200010b7d42",0,442,0.06,0,3.142,1,0,"main","kmed x 0.5",1,"NT (Online)","Computer",0
"155",155,"5cb9a316531e2200010b7d42",0,446,0.36,0,3.142,1,0,"main","kmed x 2",1,"NT (Online)","Computer",0
"156",156,"5cb9a316531e2200010b7d42",1,676,0.06,60,3.142,2,0,"main","kmed x 0.5",0,"NT (Online)","Computer",0
"157",157,"5cb9a316531e2200010b7d42",0,517,0.06,0,3.142,1,0,"main","kmed x 0.5",1,"NT (Online)","Computer",0
"158",158,"5cb9a316531e2200010b7d42",1,428,0.24,0,0,2,0,"main","kmed",1,"NT (Online)","Computer",0
"159",159,"5cb9a316531e2200010b7d42",0,434,0.06,0,3.142,1,0,"main","kmed x 0.5",1,"NT (Online)","Computer",0
"160",160,"5cb9a316531e2200010b7d42",1,398,0.24,0,0,2,0,"main","kmed",1,"NT (Online)","Computer",0
"161",161,"5cb9a316531e2200010b7d42",1,433,0.36,100,0,2,0,"main","kmed x 2",1,"NT (Online)","Computer",0
"162",162,"5cb9a316531e2200010b7d42",1,442,0.36,0,0,2,0,"main","kmed x 2",1,"NT (Online)","Computer",0
"163",163,"5cb9a316531e2200010b7d42",0,1043,0.06,0,0,1,0,"main","kmed x 0.5",0,"NT (Online)","Computer",0
"164",164,"5cb9a316531e2200010b7d42",0,450,0.24,0,3.142,1,0,"main","kmed",1,"NT (Online)","Computer",0
"165",165,"5cb9a316531e2200010b7d42",0,462,0.36,0,3.142,1,0,"main","kmed x 2",1,"NT (Online)","Computer",0
"166",166,"5cb9a316531e2200010b7d42",1,473,0.36,100,0,2,0,"main","kmed x 2",1,"NT (Online)","Computer",0
"167",167,"5cb9a316531e2200010b7d42",1,446,0.06,0,0,2,0,"main","kmed x 0.5",1,"NT (Online)","Computer",0
"168",168,"5cb9a316531e2200010b7d42",0,455,0.24,0,3.142,1,0,"main","kmed",1,"NT (Online)","Computer",0
"169",169,"5cb9a316531e2200010b7d42",1,463,0.24,0,0,2,0,"main","kmed",1,"NT (Online)","Computer",0
"170",170,"5cb9a316531e2200010b7d42",1,440,0.24,0,0,2,0,"main","kmed",1,"NT (Online)","Computer",0
"171",171,"5cb9a316531e2200010b7d42",0,465,0.06,70,0,1,0,"main","kmed x 0.5",0,"NT (Online)","Computer",0
"172",172,"5cb9a316531e2200010b7d42",0,394,0.24,0,3.142,1,0,"main","kmed",1,"NT (Online)","Computer",0
"173",173,"5cb9a316531e2200010b7d42",1,496,0.24,0,0,2,0,"main","kmed",1,"NT (Online)","Computer",0
"174",174,"5cb9a316531e2200010b7d42",0,433,0.36,0,3.142,1,0,"main","kmed x 2",1,"NT (Online)","Computer",0
"175",175,"5cb9a316531e2200010b7d42",0,463,0.36,0,3.142,1,0,"main","kmed x 2",1,"NT (Online)","Computer",0
"176",176,"5cb9a316531e2200010b7d42",0,421,0.36,100,3.142,1,0,"main","kmed x 2",1,"NT (Online)","Computer",0
"177",177,"5cb9a316531e2200010b7d42",0,392,0.36,0,3.142,1,0,"main","kmed x 2",1,"NT (Online)","Computer",0
"178",178,"5cb9a316531e2200010b7d42",1,430,0.24,0,0,2,0,"main","kmed",1,"NT (Online)","Computer",0
"179",179,"5cb9a316531e2200010b7d42",0,502,0.06,0,3.142,1,0,"main","kmed x 0.5",1,"NT (Online)","Computer",0
"180",180,"5cb9a316531e2200010b7d42",1,582,0.24,0,0,2,0,"main","kmed",1,"NT (Online)","Computer",0
"181",181,"5cb9a316531e2200010b7d42",0,417,0.06,100,3.142,1,0,"main","kmed x 0.5",1,"NT (Online)","Computer",0
"182",182,"5cb9a316531e2200010b7d42",1,445,0.06,0,0,2,0,"main","kmed x 0.5",1,"NT (Online)","Computer",0
"183",183,"5cb9a316531e2200010b7d42",1,466,0.36,0,0,2,0,"main","kmed x 2",1,"NT (Online)","Computer",0
"184",184,"5cb9a316531e2200010b7d42",1,447,0.36,0,0,2,0,"main","kmed x 2",1,"NT (Online)","Computer",0
"185",185,"5cb9a316531e2200010b7d42",1,501,0.36,0,0,2,0,"main","kmed x 2",1,"NT (Online)","Computer",0
"186",186,"5cb9a316531e2200010b7d42",1,484,0.06,100,0,2,0,"main","kmed x 0.5",1,"NT (Online)","Computer",0
"187",187,"5cb9a316531e2200010b7d42",0,833,0.06,0,3.142,1,0,"main","kmed x 0.5",1,"NT (Online)","Computer",0
"188",188,"5cb9a316531e2200010b7d42",1,615,0.06,0,0,2,0,"main","kmed x 0.5",1,"NT (Online)","Computer",0
"189",189,"5cb9a316531e2200010b7d42",0,396,0.36,0,3.142,1,0,"main","kmed x 2",1,"NT (Online)","Computer",0
"190",190,"5cb9a316531e2200010b7d42",0,538,0.06,0,3.142,1,0,"main","kmed x 0.5",1,"NT (Online)","Computer",0
"191",191,"5cb9a316531e2200010b7d42",0,413,0.36,100,3.142,1,0,"main","kmed x 2",1,"NT (Online)","Computer",0
"192",192,"5cb9a316531e2200010b7d42",1,546,0.06,0,0,2,0,"main","kmed x 0.5",1,"NT (Online)","Computer",0
"193",193,"5cb9a316531e2200010b7d42",1,453,0.36,0,0,2,0,"main","kmed x 2",1,"NT (Online)","Computer",0
"194",194,"5cb9a316531e2200010b7d42",0,446,0.06,0,3.142,1,0,"main","kmed x 0.5",1,"NT (Online)","Computer",0
"195",195,"5cb9a316531e2200010b7d42",0,448,0.06,0,3.142,1,0,"main","kmed x 0.5",1,"NT (Online)","Computer",0
"196",196,"5cb9a316531e2200010b7d42",0,426,0.36,100,3.142,1,0,"main","kmed x 2",1,"NT (Online)","Computer",0
"197",197,"5cb9a316531e2200010b7d42",0,425,0.06,0,3.142,1,0,"main","kmed x 0.5",1,"NT (Online)","Computer",0
"198",198,"5cb9a316531e2200010b7d42",0,419,0.36,0,3.142,1,0,"main","kmed x 2",1,"NT (Online)","Computer",0
"199",199,"5cb9a316531e2200010b7d42",1,453,0.36,0,0,2,0,"main","kmed x 2",1,"NT (Online)","Computer",0
"200",200,"5cb9a316531e2200010b7d42",0,396,0.36,0,3.142,1,0,"main","kmed x 2",1,"NT (Online)","Computer",0
"201",201,"5cb9a316531e2200010b7d42",0,398,0.36,100,3.142,1,0,"main","kmed x 2",1,"NT (Online)","Computer",0
"202",202,"5cb9a316531e2200010b7d42",0,473,0.06,0,3.142,1,0,"main","kmed x 0.5",1,"NT (Online)","Computer",0
"203",203,"5cb9a316531e2200010b7d42",1,433,0.06,0,0,2,0,"main","kmed x 0.5",1,"NT (Online)","Computer",0
"204",204,"5cb9a316531e2200010b7d42",1,628,0.24,0,0,2,0,"main","kmed",1,"NT (Online)","Computer",0
"205",205,"5cb9a316531e2200010b7d42",0,375,0.24,0,3.142,1,0,"main","kmed",1,"NT (Online)","Computer",0
"206",206,"5cb9a316531e2200010b7d42",1,447,0.36,100,0,2,0,"main","kmed x 2",1,"NT (Online)","Computer",0
"207",207,"5cb9a316531e2200010b7d42",1,431,0.36,0,0,2,0,"main","kmed x 2",1,"NT (Online)","Computer",0
"208",208,"5cb9a316531e2200010b7d42",1,435,0.24,0,0,2,0,"main","kmed",1,"NT (Online)","Computer",0
"209",209,"5cb9a316531e2200010b7d42",1,478,0.06,0,0,2,0,"main","kmed x 0.5",1,"NT (Online)","Computer",0
"210",210,"5cb9a316531e2200010b7d42",0,417,0.24,0,3.142,1,0,"main","kmed",1,"NT (Online)","Computer",0
"211",211,"5cb9a316531e2200010b7d42",1,533,0.06,100,0,2,0,"main","kmed x 0.5",1,"NT (Online)","Computer",0
"212",212,"5cb9a316531e2200010b7d42",0,441,0.24,0,3.142,1,0,"main","kmed",1,"NT (Online)","Computer",0
"213",213,"5cb9a316531e2200010b7d42",1,416,0.24,0,0,2,0,"main","kmed",1,"NT (Online)","Computer",0
"214",214,"5cb9a316531e2200010b7d42",1,410,0.24,0,0,2,0,"main","kmed",1,"NT (Online)","Computer",0
"215",215,"5cb9a316531e2200010b7d42",0,512,0.06,0,3.142,1,0,"main","kmed x 0.5",1,"NT (Online)","Computer",0
"216",216,"5cb9a316531e2200010b7d42",1,401,0.24,100,0,2,0,"main","kmed",1,"NT (Online)","Computer",0
"217",217,"5cb9a316531e2200010b7d42",1,413,0.24,0,0,2,0,"main","kmed",1,"NT (Online)","Computer",0
"218",218,"5cb9a316531e2200010b7d42",1,531,0.06,0,0,2,0,"main","kmed x 0.5",1,"NT (Online)","Computer",0
"219",219,"5cb9a316531e2200010b7d42",1,426,0.24,0,0,2,0,"main","kmed",1,"NT (Online)","Computer",0
"220",220,"5cb9a316531e2200010b7d42",0,393,0.24,0,3.142,1,0,"main","kmed",1,"NT (Online)","Computer",0
"221",221,"5cb9a316531e2200010b7d42",0,483,0.36,100,3.142,1,0,"main","kmed x 2",1,"NT (Online)","Computer",0
"222",222,"5cb9a316531e2200010b7d42",1,419,0.24,0,0,2,0,"main","kmed",1,"NT (Online)","Computer",0
"223",223,"5cb9a316531e2200010b7d42",0,408,0.24,0,3.142,1,0,"main","kmed",1,"NT (Online)","Computer",0
"224",224,"5cb9a316531e2200010b7d42",1,464,0.36,0,0,2,0,"main","kmed x 2",1,"NT (Online)","Computer",0
"225",225,"5cb9a316531e2200010b7d42",1,466,0.36,0,0,2,0,"main","kmed x 2",1,"NT (Online)","Computer",0
"226",226,"5cb9a316531e2200010b7d42",0,425,0.36,100,3.142,1,0,"main","kmed x 2",1,"NT (Online)","Computer",0
"227",227,"5cb9a316531e2200010b7d42",0,789,0.06,0,3.142,1,0,"main","kmed x 0.5",1,"NT (Online)","Computer",0
"228",228,"5cb9a316531e2200010b7d42",1,474,0.06,0,0,2,0,"main","kmed x 0.5",1,"NT (Online)","Computer",0
"229",229,"5cb9a316531e2200010b7d42",0,411,0.24,0,3.142,1,0,"main","kmed",1,"NT (Online)","Computer",0
"230",230,"5cb9a316531e2200010b7d42",0,530,0.06,0,3.142,1,0,"main","kmed x 0.5",1,"NT (Online)","Computer",0
"231",231,"5cb9a316531e2200010b7d42",0,479,0.06,90,3.142,1,0,"main","kmed x 0.5",1,"NT (Online)","Computer",0
"232",232,"5cb9a316531e2200010b7d42",1,450,0.24,0,0,2,0,"main","kmed",1,"NT (Online)","Computer",0
"233",233,"5cb9a316531e2200010b7d42",1,436,0.24,0,0,2,0,"main","kmed",1,"NT (Online)","Computer",0
"234",234,"5cb9a316531e2200010b7d42",1,436,0.36,0,0,2,0,"main","kmed x 2",1,"NT (Online)","Computer",0
"235",235,"5cb9a316531e2200010b7d42",0,452,0.06,0,3.142,1,0,"main","kmed x 0.5",1,"NT (Online)","Computer",0
"236",236,"5cb9a316531e2200010b7d42",0,417,0.06,100,3.142,1,0,"main","kmed x 0.5",1,"NT (Online)","Computer",0
"237",237,"5cb9a316531e2200010b7d42",1,479,0.06,0,0,2,0,"main","kmed x 0.5",1,"NT (Online)","Computer",0
"238",238,"5cb9a316531e2200010b7d42",0,410,0.36,0,3.142,1,0,"main","kmed x 2",1,"NT (Online)","Computer",0
"239",239,"5cb9a316531e2200010b7d42",1,446,0.06,0,0,2,0,"main","kmed x 0.5",1,"NT (Online)","Computer",0
"240",240,"5cb9a316531e2200010b7d42",1,484,0.24,0,0,2,0,"main","kmed",1,"NT (Online)","Computer",0
"241",241,"5cb9a316531e2200010b7d42",0,448,0.36,100,3.142,1,0,"main","kmed x 2",1,"NT (Online)","Computer",0
"242",242,"5cb9a316531e2200010b7d42",1,579,0.06,0,0,2,0,"main","kmed x 0.5",1,"NT (Online)","Computer",0
"243",243,"5cb9a316531e2200010b7d42",1,425,0.36,0,0,2,0,"main","kmed x 2",1,"NT (Online)","Computer",0
"244",244,"5cb9a316531e2200010b7d42",0,442,0.24,0,3.142,1,0,"main","kmed",1,"NT (Online)","Computer",0
"245",245,"5cb9a316531e2200010b7d42",0,399,0.24,0,3.142,1,0,"main","kmed",1,"NT (Online)","Computer",0
"246",246,"5cb9a316531e2200010b7d42",0,449,0.06,90,3.142,1,0,"main","kmed x 0.5",1,"NT (Online)","Computer",0
"247",247,"5cb9a316531e2200010b7d42",0,361,0.36,0,3.142,1,0,"main","kmed x 2",1,"NT (Online)","Computer",0
"248",248,"5cb9a316531e2200010b7d42",1,413,0.36,0,0,2,0,"main","kmed x 2",1,"NT (Online)","Computer",0
"249",249,"5cb9a316531e2200010b7d42",1,547,0.06,0,0,2,0,"main","kmed x 0.5",1,"NT (Online)","Computer",0
"250",250,"5cb9a316531e2200010b7d42",1,436,0.06,0,0,2,0,"main","kmed x 0.5",1,"NT (Online)","Computer",0
"251",251,"5cb9a316531e2200010b7d42",0,464,0.06,90,3.142,1,0,"main","kmed x 0.5",1,"NT (Online)","Computer",0
"252",252,"5cb9a316531e2200010b7d42",1,494,0.06,0,0,2,0,"main","kmed x 0.5",1,"NT (Online)","Computer",0
"253",253,"5cb9a316531e2200010b7d42",1,468,0.24,0,0,2,0,"main","kmed",1,"NT (Online)","Computer",0
"254",254,"5cb9a316531e2200010b7d42",0,411,0.06,0,3.142,1,0,"main","kmed x 0.5",1,"NT (Online)","Computer",0
"255",255,"5cb9a316531e2200010b7d42",1,423,0.24,0,0,2,0,"main","kmed",1,"NT (Online)","Computer",0
"256",256,"5cb9a316531e2200010b7d42",1,425,0.36,100,0,2,0,"main","kmed x 2",1,"NT (Online)","Computer",0
"257",257,"5cb9a316531e2200010b7d42",1,470,0.24,0,0,2,0,"main","kmed",1,"NT (Online)","Computer",0
"258",258,"5cb9a316531e2200010b7d42",1,446,0.06,0,0,2,0,"main","kmed x 0.5",1,"NT (Online)","Computer",0
"259",259,"5cb9a316531e2200010b7d42",1,484,0.24,0,0,2,0,"main","kmed",1,"NT (Online)","Computer",0
"260",260,"5cb9a316531e2200010b7d42",1,446,0.06,0,0,2,0,"main","kmed x 0.5",1,"NT (Online)","Computer",0
"261",261,"5cb9a316531e2200010b7d42",0,427,0.36,100,3.142,1,0,"main","kmed x 2",1,"NT (Online)","Computer",0
"262",262,"5cb9a316531e2200010b7d42",1,430,0.24,0,0,2,0,"main","kmed",1,"NT (Online)","Computer",0
"263",263,"5cb9a316531e2200010b7d42",0,446,0.06,0,3.142,1,0,"main","kmed x 0.5",1,"NT (Online)","Computer",0
"264",264,"5cb9a316531e2200010b7d42",0,430,0.06,0,3.142,1,0,"main","kmed x 0.5",1,"NT (Online)","Computer",0
"265",265,"5cb9a316531e2200010b7d42",1,457,0.24,0,0,2,0,"main","kmed",1,"NT (Online)","Computer",0
"266",266,"5cb9a316531e2200010b7d42",1,449,0.36,100,0,2,0,"main","kmed x 2",1,"NT (Online)","Computer",0
"267",267,"5cb9a316531e2200010b7d42",0,410,0.24,0,3.142,1,0,"main","kmed",1,"NT (Online)","Computer",0
"268",268,"5cb9a316531e2200010b7d42",1,447,0.24,0,0,2,0,"main","kmed",1,"NT (Online)","Computer",0
"269",269,"5cb9a316531e2200010b7d42",1,559,0.36,0,0,2,0,"main","kmed x 2",1,"NT (Online)","Computer",0
"270",270,"5cb9a316531e2200010b7d42",0,420,0.06,0,3.142,1,0,"main","kmed x 0.5",1,"NT (Online)","Computer",0
"271",271,"5cb9a316531e2200010b7d42",0,407,0.36,100,3.142,1,0,"main","kmed x 2",1,"NT (Online)","Computer",0
"272",272,"5cb9a316531e2200010b7d42",1,613,0.36,0,0,2,0,"main","kmed x 2",1,"NT (Online)","Computer",0
"273",273,"5cb9a316531e2200010b7d42",0,527,0.36,0,3.142,1,0,"main","kmed x 2",1,"NT (Online)","Computer",0
"274",274,"5cb9a316531e2200010b7d42",0,395,0.06,0,3.142,1,0,"main","kmed x 0.5",1,"NT (Online)","Computer",0
"275",275,"5cb9a316531e2200010b7d42",1,461,0.06,0,0,2,0,"main","kmed x 0.5",1,"NT (Online)","Computer",0
"276",276,"5cb9a316531e2200010b7d42",0,479,0.36,100,3.142,1,0,"main","kmed x 2",1,"NT (Online)","Computer",0
"277",277,"5cb9a316531e2200010b7d42",1,612,0.24,0,0,2,0,"main","kmed",1,"NT (Online)","Computer",0
"278",278,"5cb9a316531e2200010b7d42",1,537,0.24,0,0,2,0,"main","kmed",1,"NT (Online)","Computer",0
"279",279,"5cb9a316531e2200010b7d42",0,474,0.06,0,3.142,1,0,"main","kmed x 0.5",1,"NT (Online)","Computer",0
"280",280,"5cb9a316531e2200010b7d42",0,401,0.24,0,3.142,1,0,"main","kmed",1,"NT (Online)","Computer",0
"281",281,"5cb9a316531e2200010b7d42",0,420,0.36,100,3.142,1,0,"main","kmed x 2",1,"NT (Online)","Computer",0
"282",282,"5cb9a316531e2200010b7d42",1,418,0.36,0,0,2,0,"main","kmed x 2",1,"NT (Online)","Computer",0
"283",283,"5cb9a316531e2200010b7d42",0,408,0.24,0,3.142,1,0,"main","kmed",1,"NT (Online)","Computer",0
"284",284,"5cb9a316531e2200010b7d42",1,450,0.36,0,0,2,0,"main","kmed x 2",1,"NT (Online)","Computer",0
"285",285,"5cb9a316531e2200010b7d42",1,508,0.36,0,0,2,0,"main","kmed x 2",1,"NT (Online)","Computer",0
"286",286,"5cb9a316531e2200010b7d42",0,453,0.24,100,3.142,1,0,"main","kmed",1,"NT (Online)","Computer",0
"287",287,"5cb9a316531e2200010b7d42",1,443,0.36,0,0,2,0,"main","kmed x 2",1,"NT (Online)","Computer",0
"288",288,"5cb9a316531e2200010b7d42",0,417,0.24,0,3.142,1,0,"main","kmed",1,"NT (Online)","Computer",0
"289",289,"5cb9a316531e2200010b7d42",0,497,0.36,0,3.142,1,0,"main","kmed x 2",1,"NT (Online)","Computer",0
"290",290,"5cb9a316531e2200010b7d42",1,502,0.36,0,0,2,0,"main","kmed x 2",1,"NT (Online)","Computer",0
"291",291,"5cb9a316531e2200010b7d42",1,530,0.24,100,0,2,0,"main","kmed",1,"NT (Online)","Computer",0
"292",292,"5cb9a316531e2200010b7d42",0,426,0.24,0,3.142,1,0,"main","kmed",1,"NT (Online)","Computer",0
"293",293,"5cb9a316531e2200010b7d42",1,467,0.36,0,0,2,0,"main","kmed x 2",1,"NT (Online)","Computer",0
"294",294,"5cb9a316531e2200010b7d42",0,449,0.36,0,3.142,1,0,"main","kmed x 2",1,"NT (Online)","Computer",0
"295",295,"5cb9a316531e2200010b7d42",0,588,0.24,0,3.142,1,0,"main","kmed",1,"NT (Online)","Computer",0
"296",296,"5cb9a316531e2200010b7d42",1,533,0.06,60,3.142,2,0,"main","kmed x 0.5",0,"NT (Online)","Computer",0
"297",297,"5cb9a316531e2200010b7d42",1,483,0.36,0,0,2,0,"main","kmed x 2",1,"NT (Online)","Computer",0
"298",298,"5cb9a316531e2200010b7d42",1,435,0.06,0,0,2,0,"main","kmed x 0.5",1,"NT (Online)","Computer",0
"299",299,"5cb9a316531e2200010b7d42",0,445,0.06,0,3.142,1,0,"main","kmed x 0.5",1,"NT (Online)","Computer",0
"300",300,"5cb9a316531e2200010b7d42",1,449,0.06,0,0,2,0,"main","kmed x 0.5",1,"NT (Online)","Computer",0
"301",301,"5cb9a316531e2200010b7d42",0,423,0.24,90,3.142,1,0,"main","kmed",1,"NT (Online)","Computer",0
"302",302,"5cb9a316531e2200010b7d42",0,414,0.24,0,3.142,1,0,"main","kmed",1,"NT (Online)","Computer",0
"303",303,"5cb9a316531e2200010b7d42",1,433,0.24,0,0,2,0,"main","kmed",1,"NT (Online)","Computer",0
"304",304,"5cb9a316531e2200010b7d42",0,403,0.24,0,3.142,1,0,"main","kmed",1,"NT (Online)","Computer",0
"305",305,"5cb9a316531e2200010b7d42",1,451,0.24,0,0,2,0,"main","kmed",1,"NT (Online)","Computer",0
"306",306,"5cb9a316531e2200010b7d42",1,450,0.06,80,0,2,0,"main","kmed x 0.5",1,"NT (Online)","Computer",0
"307",307,"5cb9a316531e2200010b7d42",1,451,0.24,0,0,2,0,"main","kmed",1,"NT (Online)","Computer",0
"308",308,"5cb9a316531e2200010b7d42",0,452,0.24,0,3.142,1,0,"main","kmed",1,"NT (Online)","Computer",0
"309",309,"5cb9a316531e2200010b7d42",1,426,0.06,0,0,2,0,"main","kmed x 0.5",1,"NT (Online)","Computer",0
"310",310,"5cb9a316531e2200010b7d42",0,468,0.06,0,3.142,1,0,"main","kmed x 0.5",1,"NT (Online)","Computer",0
"311",311,"5cb9a316531e2200010b7d42",1,440,0.24,100,0,2,0,"main","kmed",1,"NT (Online)","Computer",0
"312",312,"5cb9a316531e2200010b7d42",0,467,0.06,0,3.142,1,0,"main","kmed x 0.5",1,"NT (Online)","Computer",0
"313",313,"5cb9a316531e2200010b7d42",0,481,0.06,0,3.142,1,0,"main","kmed x 0.5",1,"NT (Online)","Computer",0
"314",314,"5cb9a316531e2200010b7d42",0,392,0.36,0,3.142,1,0,"main","kmed x 2",1,"NT (Online)","Computer",0
"315",315,"5cb9a316531e2200010b7d42",1,433,0.06,0,0,2,0,"main","kmed x 0.5",1,"NT (Online)","Computer",0
"316",316,"5cb9a316531e2200010b7d42",1,427,0.36,100,0,2,0,"main","kmed x 2",1,"NT (Online)","Computer",0
"317",317,"5cb9a316531e2200010b7d42",0,400,0.24,0,3.142,1,0,"main","kmed",1,"NT (Online)","Computer",0
"318",318,"5cb9a316531e2200010b7d42",1,497,0.24,0,0,2,0,"main","kmed",1,"NT (Online)","Computer",0
"319",319,"5cb9a316531e2200010b7d42",0,427,0.06,0,3.142,1,0,"main","kmed x 0.5",1,"NT (Online)","Computer",0
"320",320,"5cb9a316531e2200010b7d42",1,463,0.06,0,0,2,0,"main","kmed x 0.5",1,"NT (Online)","Computer",0
"321",1,"60260429f50d5a23008ade61",1,856,0.2,90,3.142,1,0,"calibration","kmed",1,"NT (Online)","Computer",0
"322",2,"60260429f50d5a23008ade61",1,793,0.2,0,0,2,0,"calibration","kmed",1,"NT (Online)","Computer",0
"323",3,"60260429f50d5a23008ade61",1,622,0.2,0,3.142,1,0,"calibration","kmed",1,"NT (Online)","Computer",0
"324",4,"60260429f50d5a23008ade61",1,669,0.2,0,3.142,1,0,"calibration","kmed",1,"NT (Online)","Computer",0
"325",5,"60260429f50d5a23008ade61",1,596,0.19,0,0,2,0,"calibration","kmed",1,"NT (Online)","Computer",0
"326",6,"60260429f50d5a23008ade61",1,1650,0.19,60,0,2,0,"calibration","kmed",1,"NT (Online)","Computer",0
"327",7,"60260429f50d5a23008ade61",0,2849,0.18,0,0,1,0,"calibration","kmed",0,"NT (Online)","Computer",0
"328",8,"60260429f50d5a23008ade61",1,655,0.19,0,3.142,1,0,"calibration","kmed",1,"NT (Online)","Computer",0
"329",9,"60260429f50d5a23008ade61",1,777,0.19,0,0,2,0,"calibration","kmed",1,"NT (Online)","Computer",0
"330",10,"60260429f50d5a23008ade61",0,842,0.18,0,0,1,0,"calibration","kmed",0,"NT (Online)","Computer",0
"331",11,"60260429f50d5a23008ade61",1,574,0.19,90,3.142,1,0,"calibration","kmed",1,"NT (Online)","Computer",0
"332",12,"60260429f50d5a23008ade61",0,1632,0.19,0,0,1,0,"calibration","kmed",0,"NT (Online)","Computer",0
"333",13,"60260429f50d5a23008ade61",0,861,0.2,0,0,1,0,"calibration","kmed",0,"NT (Online)","Computer",0
"334",14,"60260429f50d5a23008ade61",0,830,0.21,0,0,1,0,"calibration","kmed",0,"NT (Online)","Computer",0
"335",15,"60260429f50d5a23008ade61",1,608,0.22,0,3.142,1,0,"calibration","kmed",1,"NT (Online)","Computer",0
"336",16,"60260429f50d5a23008ade61",1,721,0.22,90,3.142,1,0,"calibration","kmed",1,"NT (Online)","Computer",0
"337",17,"60260429f50d5a23008ade61",0,1045,0.21,0,0,1,0,"calibration","kmed",0,"NT (Online)","Computer",0
"338",18,"60260429f50d5a23008ade61",0,1490,0.22,0,0,1,0,"calibration","kmed",0,"NT (Online)","Computer",0
"339",19,"60260429f50d5a23008ade61",0,796,0.23,0,0,1,0,"calibration","kmed",0,"NT (Online)","Computer",0
"340",20,"60260429f50d5a23008ade61",1,622,0.24,0,3.142,1,0,"calibration","kmed x 2",1,"NT (Online)","Computer",0
"341",21,"60260429f50d5a23008ade61",1,740,0.24,60,3.142,1,0,"calibration","kmed x 2",1,"NT (Online)","Computer",0
"342",22,"60260429f50d5a23008ade61",0,1235,0.23,0,0,1,0,"calibration","kmed",0,"NT (Online)","Computer",0
"343",23,"60260429f50d5a23008ade61",1,1022,0.24,0,0,2,0,"calibration","kmed x 2",1,"NT (Online)","Computer",0
"344",24,"60260429f50d5a23008ade61",1,582,0.24,0,3.142,1,0,"calibration","kmed x 2",1,"NT (Online)","Computer",0
"345",25,"60260429f50d5a23008ade61",0,1743,0.23,0,3.142,2,0,"calibration","kmed",0,"NT (Online)","Computer",0
"346",26,"60260429f50d5a23008ade61",1,525,0.24,90,3.142,1,0,"calibration","kmed x 2",1,"NT (Online)","Computer",0
"347",27,"60260429f50d5a23008ade61",1,796,0.24,0,3.142,1,0,"calibration","kmed x 2",1,"NT (Online)","Computer",0
"348",28,"60260429f50d5a23008ade61",1,2468,0.23,0,0,2,0,"calibration","kmed",1,"NT (Online)","Computer",0
"349",29,"60260429f50d5a23008ade61",1,612,0.23,0,3.142,1,0,"calibration","kmed",1,"NT (Online)","Computer",0
"350",30,"60260429f50d5a23008ade61",1,693,0.22,0,0,2,0,"calibration","kmed",1,"NT (Online)","Computer",0
"351",31,"60260429f50d5a23008ade61",1,3228,0.22,60,0,2,0,"calibration","kmed",1,"NT (Online)","Computer",0
"352",32,"60260429f50d5a23008ade61",1,2795,0.21,0,3.142,1,0,"calibration","kmed",1,"NT (Online)","Computer",0
"353",33,"60260429f50d5a23008ade61",0,656,0.21,0,3.142,2,0,"calibration","kmed",0,"NT (Online)","Computer",0
"354",34,"60260429f50d5a23008ade61",1,730,0.22,0,0,2,0,"calibration","kmed",1,"NT (Online)","Computer",0
"355",35,"60260429f50d5a23008ade61",1,596,0.22,0,0,2,0,"calibration","kmed",1,"NT (Online)","Computer",0
"356",36,"60260429f50d5a23008ade61",1,644,0.21,90,0,2,0,"calibration","kmed",1,"NT (Online)","Computer",0
"357",37,"60260429f50d5a23008ade61",1,744,0.21,0,0,2,0,"calibration","kmed",1,"NT (Online)","Computer",0
"358",38,"60260429f50d5a23008ade61",1,624,0.2,0,0,2,0,"calibration","kmed",1,"NT (Online)","Computer",0
"359",39,"60260429f50d5a23008ade61",1,569,0.2,0,0,2,0,"calibration","kmed",1,"NT (Online)","Computer",0
"360",40,"60260429f50d5a23008ade61",0,2588,0.19,0,3.142,2,0,"calibration","kmed",0,"NT (Online)","Computer",0
"361",41,"60260429f50d5a23008ade61",0,1164,0.2,70,3.142,2,0,"calibration","kmed",0,"NT (Online)","Computer",0
"362",42,"60260429f50d5a23008ade61",1,900,0.21,0,0,2,0,"calibration","kmed",1,"NT (Online)","Computer",0
"363",43,"60260429f50d5a23008ade61",0,749,0.21,0,3.142,2,0,"calibration","kmed",0,"NT (Online)","Computer",0
"364",44,"60260429f50d5a23008ade61",0,2334,0.22,0,3.142,2,0,"calibration","kmed",0,"NT (Online)","Computer",0
"365",45,"60260429f50d5a23008ade61",1,616,0.23,0,0,2,0,"calibration","kmed",1,"NT (Online)","Computer",0
"366",46,"60260429f50d5a23008ade61",1,585,0.23,90,0,2,0,"calibration","kmed",1,"NT (Online)","Computer",0
"367",47,"60260429f50d5a23008ade61",1,577,0.22,0,0,2,0,"calibration","kmed",1,"NT (Online)","Computer",0
"368",48,"60260429f50d5a23008ade61",0,2161,0.22,0,3.142,2,0,"calibration","kmed",0,"NT (Online)","Computer",0
"369",49,"60260429f50d5a23008ade61",1,1071,0.23,0,3.142,1,0,"calibration","kmed",1,"NT (Online)","Computer",0
"370",50,"60260429f50d5a23008ade61",1,2456,0.23,0,0,2,0,"calibration","kmed",1,"NT (Online)","Computer",0
"371",51,"60260429f50d5a23008ade61",1,994,0.22,80,3.142,1,0,"calibration","kmed",1,"NT (Online)","Computer",0
"372",52,"60260429f50d5a23008ade61",1,920,0.22,0,0,2,0,"calibration","kmed",1,"NT (Online)","Computer",0
"373",53,"60260429f50d5a23008ade61",1,724,0.21,0,3.142,1,0,"calibration","kmed",1,"NT (Online)","Computer",0
"374",54,"60260429f50d5a23008ade61",1,590,0.21,0,0,2,0,"calibration","kmed",1,"NT (Online)","Computer",0
"375",55,"60260429f50d5a23008ade61",1,661,0.2,0,0,2,0,"calibration","kmed",1,"NT (Online)","Computer",0
"376",56,"60260429f50d5a23008ade61",1,570,0.2,90,3.142,1,0,"calibration","kmed",1,"NT (Online)","Computer",0
"377",57,"60260429f50d5a23008ade61",1,665,0.19,0,0,2,0,"calibration","kmed",1,"NT (Online)","Computer",0
"378",58,"60260429f50d5a23008ade61",1,472,0.19,0,3.142,1,0,"calibration","kmed",1,"NT (Online)","Computer",0
"379",59,"60260429f50d5a23008ade61",1,561,0.18,0,3.142,1,0,"calibration","kmed",1,"NT (Online)","Computer",0
"380",60,"60260429f50d5a23008ade61",1,610,0.18,0,0,2,0,"calibration","kmed",1,"NT (Online)","Computer",0
"381",61,"60260429f50d5a23008ade61",1,459,0.17,90,3.142,1,0,"calibration","kmed",1,"NT (Online)","Computer",0
"382",62,"60260429f50d5a23008ade61",1,482,0.17,0,3.142,1,0,"calibration","kmed",1,"NT (Online)","Computer",0
"383",63,"60260429f50d5a23008ade61",1,561,0.16,0,3.142,1,0,"calibration","kmed",1,"NT (Online)","Computer",0
"384",64,"60260429f50d5a23008ade61",1,1197,0.16,0,0,2,0,"calibration","kmed",1,"NT (Online)","Computer",0
"385",65,"60260429f50d5a23008ade61",1,495,0.15,0,3.142,1,0,"calibration","kmed",1,"NT (Online)","Computer",0
"386",66,"60260429f50d5a23008ade61",1,599,0.15,60,0,2,0,"calibration","kmed",1,"NT (Online)","Computer",0
"387",67,"60260429f50d5a23008ade61",0,1194,0.14,0,0,1,0,"calibration","kmed",0,"NT (Online)","Computer",0
"388",68,"60260429f50d5a23008ade61",1,749,0.15,0,0,2,0,"calibration","kmed",1,"NT (Online)","Computer",0
"389",69,"60260429f50d5a23008ade61",1,499,0.15,0,3.142,1,0,"calibration","kmed",1,"NT (Online)","Computer",0
"390",70,"60260429f50d5a23008ade61",1,584,0.14,0,3.142,1,0,"calibration","kmed",1,"NT (Online)","Computer",0
"391",71,"60260429f50d5a23008ade61",0,891,0.14,60,0,1,0,"calibration","kmed",0,"NT (Online)","Computer",0
"392",72,"60260429f50d5a23008ade61",1,544,0.15,0,3.142,1,0,"calibration","kmed",1,"NT (Online)","Computer",0
"393",73,"60260429f50d5a23008ade61",1,514,0.15,0,3.142,1,0,"calibration","kmed",1,"NT (Online)","Computer",0
"394",74,"60260429f50d5a23008ade61",1,494,0.14,0,3.142,1,0,"calibration","kmed",1,"NT (Online)","Computer",0
"395",75,"60260429f50d5a23008ade61",1,512,0.14,0,3.142,1,0,"calibration","kmed",1,"NT (Online)","Computer",0
"396",76,"60260429f50d5a23008ade61",0,765,0.13,70,0,1,0,"calibration","kmed",0,"NT (Online)","Computer",0
"397",77,"60260429f50d5a23008ade61",1,538,0.14,0,3.142,1,0,"calibration","kmed",1,"NT (Online)","Computer",0
"398",78,"60260429f50d5a23008ade61",0,699,0.14,0,0,1,0,"calibration","kmed",0,"NT (Online)","Computer",0
"399",79,"60260429f50d5a23008ade61",1,481,0.15,0,3.142,1,0,"calibration","kmed",1,"NT (Online)","Computer",0
"400",80,"60260429f50d5a23008ade61",1,1216,0.15,0,0,2,0,"calibration","kmed",1,"NT (Online)","Computer",0
"401",81,"60260429f50d5a23008ade61",1,1244,0.14,50,0,2,0,"calibration","kmed",1,"NT (Online)","Computer",0
"402",82,"60260429f50d5a23008ade61",1,548,0.14,0,3.142,1,0,"calibration","kmed",1,"NT (Online)","Computer",0
"403",83,"60260429f50d5a23008ade61",0,992,0.13,0,0,1,0,"calibration","kmed",0,"NT (Online)","Computer",0
"404",84,"60260429f50d5a23008ade61",1,529,0.14,0,0,2,0,"calibration","kmed",1,"NT (Online)","Computer",0
"405",85,"60260429f50d5a23008ade61",1,476,0.14,0,0,2,0,"calibration","kmed",1,"NT (Online)","Computer",0
"406",86,"60260429f50d5a23008ade61",0,841,0.13,60,0,1,0,"calibration","kmed",0,"NT (Online)","Computer",0
"407",87,"60260429f50d5a23008ade61",1,578,0.14,0,3.142,1,0,"calibration","kmed",1,"NT (Online)","Computer",0
"408",88,"60260429f50d5a23008ade61",1,476,0.14,0,3.142,1,0,"calibration","kmed",1,"NT (Online)","Computer",0
"409",89,"60260429f50d5a23008ade61",1,551,0.13,0,3.142,1,0,"calibration","kmed",1,"NT (Online)","Computer",0
"410",90,"60260429f50d5a23008ade61",1,610,0.13,0,3.142,1,0,"calibration","kmed",1,"NT (Online)","Computer",0
"411",91,"60260429f50d5a23008ade61",1,836,0.12,60,0,2,0,"calibration","kmed",1,"NT (Online)","Computer",0
"412",92,"60260429f50d5a23008ade61",1,632,0.12,0,3.142,1,0,"calibration","kmed",1,"NT (Online)","Computer",0
"413",93,"60260429f50d5a23008ade61",1,861,0.11,0,3.142,1,0,"calibration","kmed",1,"NT (Online)","Computer",0
"414",94,"60260429f50d5a23008ade61",1,494,0.11,0,3.142,1,0,"calibration","kmed",1,"NT (Online)","Computer",0
"415",95,"60260429f50d5a23008ade61",1,636,0.1,0,3.142,1,0,"calibration","kmed",1,"NT (Online)","Computer",0
"416",96,"60260429f50d5a23008ade61",1,458,0.1,90,3.142,1,0,"calibration","kmed",1,"NT (Online)","Computer",0
"417",97,"60260429f50d5a23008ade61",0,959,0.09,0,0,1,0,"calibration","kmed",0,"NT (Online)","Computer",0
"418",98,"60260429f50d5a23008ade61",0,878,0.1,0,0,1,0,"calibration","kmed",0,"NT (Online)","Computer",0
"419",99,"60260429f50d5a23008ade61",1,793,0.11,0,0,2,0,"calibration","kmed",1,"NT (Online)","Computer",0
"420",100,"60260429f50d5a23008ade61",1,558,0.11,0,0,2,0,"calibration","kmed",1,"NT (Online)","Computer",0
"421",101,"60260429f50d5a23008ade61",0,1853,0.1,60,0,1,0,"calibration","kmed",0,"NT (Online)","Computer",0
"422",102,"60260429f50d5a23008ade61",1,675,0.11,0,3.142,1,0,"calibration","kmed",1,"NT (Online)","Computer",0
"423",103,"60260429f50d5a23008ade61",1,53,0.11,0,3.142,1,0,"calibration","kmed",1,"NT (Online)","Computer",0
"424",104,"60260429f50d5a23008ade61",1,500,0.1,0,0,2,0,"calibration","kmed",1,"NT (Online)","Computer",0
"425",105,"60260429f50d5a23008ade61",1,1227,0.1,0,3.142,1,0,"calibration","kmed",1,"NT (Online)","Computer",0
"426",106,"60260429f50d5a23008ade61",1,1073,0.09,60,0,2,0,"calibration","kmed",1,"NT (Online)","Computer",0
"427",107,"60260429f50d5a23008ade61",0,1674,0.09,0,0,1,0,"calibration","kmed",0,"NT (Online)","Computer",0
"428",108,"60260429f50d5a23008ade61",1,866,0.1,0,3.142,1,0,"calibration","kmed",1,"NT (Online)","Computer",0
"429",109,"60260429f50d5a23008ade61",0,1410,0.1,0,3.142,2,0,"calibration","kmed",0,"NT (Online)","Computer",0
"430",110,"60260429f50d5a23008ade61",0,1350,0.11,0,3.142,2,0,"calibration","kmed",0,"NT (Online)","Computer",0
"431",111,"60260429f50d5a23008ade61",1,507,0.12,90,0,2,0,"calibration","kmed",1,"NT (Online)","Computer",0
"432",112,"60260429f50d5a23008ade61",1,564,0.12,0,3.142,1,0,"calibration","kmed",1,"NT (Online)","Computer",0
"433",113,"60260429f50d5a23008ade61",1,545,0.11,0,0,2,0,"calibration","kmed",1,"NT (Online)","Computer",0
"434",114,"60260429f50d5a23008ade61",1,620,0.11,0,3.142,1,0,"calibration","kmed",1,"NT (Online)","Computer",0
"435",115,"60260429f50d5a23008ade61",1,512,0.1,0,0,2,0,"calibration","kmed",1,"NT (Online)","Computer",0
"436",116,"60260429f50d5a23008ade61",1,477,0.1,90,3.142,1,0,"calibration","kmed",1,"NT (Online)","Computer",0
"437",117,"60260429f50d5a23008ade61",1,576,0.09,0,0,2,0,"calibration","kmed",1,"NT (Online)","Computer",0
"438",118,"60260429f50d5a23008ade61",1,477,0.09,0,0,2,0,"calibration","kmed",1,"NT (Online)","Computer",0
"439",119,"60260429f50d5a23008ade61",1,513,0.08,0,0,2,0,"calibration","kmed x 0.5",1,"NT (Online)","Computer",0
"440",120,"60260429f50d5a23008ade61",0,1035,0.08,0,3.142,2,0,"calibration","kmed x 0.5",0,"NT (Online)","Computer",0
"441",121,"60260429f50d5a23008ade61",1,1279,0.06,90,0,2,0,"main","kmed x 0.5",1,"NT (Online)","Computer",0
"442",122,"60260429f50d5a23008ade61",0,562,0.36,0,3.142,1,0,"main","kmed x 2",1,"NT (Online)","Computer",0
"443",123,"60260429f50d5a23008ade61",0,445,0.36,0,3.142,1,0,"main","kmed x 2",1,"NT (Online)","Computer",0
"444",124,"60260429f50d5a23008ade61",0,441,0.24,0,3.142,1,0,"main","kmed",1,"NT (Online)","Computer",0
"445",125,"60260429f50d5a23008ade61",0,552,0.06,0,3.142,1,0,"main","kmed x 0.5",1,"NT (Online)","Computer",0
"446",126,"60260429f50d5a23008ade61",1,505,0.06,90,0,2,0,"main","kmed x 0.5",1,"NT (Online)","Computer",0
"447",127,"60260429f50d5a23008ade61",0,1368,0.06,0,0,1,0,"main","kmed x 0.5",0,"NT (Online)","Computer",0
"448",128,"60260429f50d5a23008ade61",0,805,0.06,0,3.142,1,0,"main","kmed x 0.5",1,"NT (Online)","Computer",0
"449",129,"60260429f50d5a23008ade61",1,565,0.36,0,0,2,0,"main","kmed x 2",1,"NT (Online)","Computer",0
"450",130,"60260429f50d5a23008ade61",0,583,0.24,0,3.142,1,0,"main","kmed",1,"NT (Online)","Computer",0
"451",131,"60260429f50d5a23008ade61",0,475,0.24,80,3.142,1,0,"main","kmed",1,"NT (Online)","Computer",0
"452",132,"60260429f50d5a23008ade61",0,478,0.36,0,3.142,1,0,"main","kmed x 2",1,"NT (Online)","Computer",0
"453",133,"60260429f50d5a23008ade61",1,466,0.06,0,0,2,0,"main","kmed x 0.5",1,"NT (Online)","Computer",0
"454",134,"60260429f50d5a23008ade61",1,622,0.24,0,0,2,0,"main","kmed",1,"NT (Online)","Computer",0
"455",135,"60260429f50d5a23008ade61",1,464,0.24,0,0,2,0,"main","kmed",1,"NT (Online)","Computer",0
"456",136,"60260429f50d5a23008ade61",0,449,0.36,90,3.142,1,0,"main","kmed x 2",1,"NT (Online)","Computer",0
"457",137,"60260429f50d5a23008ade61",0,545,0.36,0,3.142,1,0,"main","kmed x 2",1,"NT (Online)","Computer",0
"458",138,"60260429f50d5a23008ade61",0,483,0.24,0,3.142,1,0,"main","kmed",1,"NT (Online)","Computer",0
"459",139,"60260429f50d5a23008ade61",1,474,0.06,0,0,2,0,"main","kmed x 0.5",1,"NT (Online)","Computer",0
"460",140,"60260429f50d5a23008ade61",1,606,0.06,0,0,2,0,"main","kmed x 0.5",1,"NT (Online)","Computer",0
"461",141,"60260429f50d5a23008ade61",0,512,0.24,90,3.142,1,0,"main","kmed",1,"NT (Online)","Computer",0
"462",142,"60260429f50d5a23008ade61",1,578,0.06,0,0,2,0,"main","kmed x 0.5",1,"NT (Online)","Computer",0
"463",143,"60260429f50d5a23008ade61",1,499,0.36,0,0,2,0,"main","kmed x 2",1,"NT (Online)","Computer",0
"464",144,"60260429f50d5a23008ade61",0,477,0.36,0,3.142,1,0,"main","kmed x 2",1,"NT (Online)","Computer",0
"465",145,"60260429f50d5a23008ade61",0,493,0.24,0,3.142,1,0,"main","kmed",1,"NT (Online)","Computer",0
"466",146,"60260429f50d5a23008ade61",0,1967,0.06,60,3.142,1,0,"main","kmed x 0.5",1,"NT (Online)","Computer",0
"467",147,"60260429f50d5a23008ade61",1,550,0.06,0,0,2,0,"main","kmed x 0.5",1,"NT (Online)","Computer",0
"468",148,"60260429f50d5a23008ade61",0,515,0.24,0,3.142,1,0,"main","kmed",1,"NT (Online)","Computer",0
"469",149,"60260429f50d5a23008ade61",1,459,0.24,0,0,2,0,"main","kmed",1,"NT (Online)","Computer",0
"470",150,"60260429f50d5a23008ade61",1,559,0.36,0,0,2,0,"main","kmed x 2",1,"NT (Online)","Computer",0
"471",151,"60260429f50d5a23008ade61",1,1898,0.06,60,3.142,2,0,"main","kmed x 0.5",0,"NT (Online)","Computer",0
"472",152,"60260429f50d5a23008ade61",0,484,0.36,0,3.142,1,0,"main","kmed x 2",1,"NT (Online)","Computer",0
"473",153,"60260429f50d5a23008ade61",1,482,0.24,0,0,2,0,"main","kmed",1,"NT (Online)","Computer",0
"474",154,"60260429f50d5a23008ade61",0,646,0.06,0,3.142,1,0,"main","kmed x 0.5",1,"NT (Online)","Computer",0
"475",155,"60260429f50d5a23008ade61",0,396,0.36,0,3.142,1,0,"main","kmed x 2",1,"NT (Online)","Computer",0
"476",156,"60260429f50d5a23008ade61",0,416,0.24,90,3.142,1,0,"main","kmed",1,"NT (Online)","Computer",0
"477",157,"60260429f50d5a23008ade61",0,535,0.24,0,3.142,1,0,"main","kmed",1,"NT (Online)","Computer",0
"478",158,"60260429f50d5a23008ade61",1,565,0.24,0,0,2,0,"main","kmed",1,"NT (Online)","Computer",0
"479",159,"60260429f50d5a23008ade61",0,559,0.24,0,3.142,1,0,"main","kmed",1,"NT (Online)","Computer",0
"480",160,"60260429f50d5a23008ade61",1,628,0.36,0,0,2,0,"main","kmed x 2",1,"NT (Online)","Computer",0
"481",161,"60260429f50d5a23008ade61",1,1129,0.06,60,0,2,0,"main","kmed x 0.5",1,"NT (Online)","Computer",0
"482",162,"60260429f50d5a23008ade61",0,1218,0.06,0,0,1,0,"main","kmed x 0.5",0,"NT (Online)","Computer",0
"483",163,"60260429f50d5a23008ade61",1,556,0.36,0,0,2,0,"main","kmed x 2",1,"NT (Online)","Computer",0
"484",164,"60260429f50d5a23008ade61",0,576,0.06,0,3.142,1,0,"main","kmed x 0.5",1,"NT (Online)","Computer",0
"485",165,"60260429f50d5a23008ade61",0,554,0.24,0,3.142,1,0,"main","kmed",1,"NT (Online)","Computer",0
"486",166,"60260429f50d5a23008ade61",1,527,0.24,90,0,2,0,"main","kmed",1,"NT (Online)","Computer",0
"487",167,"60260429f50d5a23008ade61",0,578,0.06,0,0,1,0,"main","kmed x 0.5",0,"NT (Online)","Computer",0
"488",168,"60260429f50d5a23008ade61",0,492,0.24,0,3.142,1,0,"main","kmed",1,"NT (Online)","Computer",0
"489",169,"60260429f50d5a23008ade61",1,465,0.36,0,0,2,0,"main","kmed x 2",1,"NT (Online)","Computer",0
"490",170,"60260429f50d5a23008ade61",1,615,0.06,0,0,2,0,"main","kmed x 0.5",1,"NT (Online)","Computer",0
"491",171,"60260429f50d5a23008ade61",1,511,0.36,90,0,2,0,"main","kmed x 2",1,"NT (Online)","Computer",0
"492",172,"60260429f50d5a23008ade61",0,762,0.06,0,3.142,1,0,"main","kmed x 0.5",1,"NT (Online)","Computer",0
"493",173,"60260429f50d5a23008ade61",1,508,0.36,0,0,2,0,"main","kmed x 2",1,"NT (Online)","Computer",0
"494",174,"60260429f50d5a23008ade61",0,478,0.24,0,3.142,1,0,"main","kmed",1,"NT (Online)","Computer",0
"495",175,"60260429f50d5a23008ade61",0,2199,0.06,0,3.142,1,0,"main","kmed x 0.5",1,"NT (Online)","Computer",0
"496",176,"60260429f50d5a23008ade61",0,715,0.06,70,3.142,1,1,"main","kmed x 0.5",1,"NT (Online)","Computer",0
"497",177,"60260429f50d5a23008ade61",0,1299,0.24,0,3.142,1,0,"main","kmed",1,"NT (Online)","Computer",0
"498",178,"60260429f50d5a23008ade61",1,976,0.24,0,0,2,0,"main","kmed",1,"NT (Online)","Computer",0
"499",179,"60260429f50d5a23008ade61",0,553,0.24,0,3.142,1,0,"main","kmed",1,"NT (Online)","Computer",0
"500",180,"60260429f50d5a23008ade61",0,644,0.06,0,0,1,0,"main","kmed x 0.5",0,"NT (Online)","Computer",0
"501",181,"60260429f50d5a23008ade61",0,612,0.36,90,3.142,1,0,"main","kmed x 2",1,"NT (Online)","Computer",0
"502",182,"60260429f50d5a23008ade61",1,690,0.24,0,0,2,0,"main","kmed",1,"NT (Online)","Computer",0
"503",183,"60260429f50d5a23008ade61",1,599,0.36,0,0,2,0,"main","kmed x 2",1,"NT (Online)","Computer",0
"504",184,"60260429f50d5a23008ade61",1,531,0.24,0,0,2,0,"main","kmed",1,"NT (Online)","Computer",0
"505",185,"60260429f50d5a23008ade61",1,626,0.24,0,0,2,0,"main","kmed",1,"NT (Online)","Computer",0
"506",186,"60260429f50d5a23008ade61",1,591,0.06,70,0,2,0,"main","kmed x 0.5",1,"NT (Online)","Computer",0
"507",187,"60260429f50d5a23008ade61",0,643,0.24,0,3.142,1,0,"main","kmed",1,"NT (Online)","Computer",0
"508",188,"60260429f50d5a23008ade61",1,571,0.06,0,0,2,0,"main","kmed x 0.5",1,"NT (Online)","Computer",0
"509",189,"60260429f50d5a23008ade61",0,570,0.24,0,3.142,1,0,"main","kmed",1,"NT (Online)","Computer",0
"510",190,"60260429f50d5a23008ade61",0,482,0.24,0,3.142,1,0,"main","kmed",1,"NT (Online)","Computer",0
"511",191,"60260429f50d5a23008ade61",0,1860,0.06,50,3.142,1,0,"main","kmed x 0.5",1,"NT (Online)","Computer",0
"512",192,"60260429f50d5a23008ade61",1,862,0.36,0,0,2,0,"main","kmed x 2",1,"NT (Online)","Computer",0
"513",193,"60260429f50d5a23008ade61",1,609,0.36,0,0,2,0,"main","kmed x 2",1,"NT (Online)","Computer",0
"514",194,"60260429f50d5a23008ade61",0,561,0.24,0,3.142,1,0,"main","kmed",1,"NT (Online)","Computer",0
"515",195,"60260429f50d5a23008ade61",1,2335,0.06,0,3.142,2,0,"main","kmed x 0.5",0,"NT (Online)","Computer",0
"516",196,"60260429f50d5a23008ade61",0,524,0.24,90,3.142,1,0,"main","kmed",1,"NT (Online)","Computer",0
"517",197,"60260429f50d5a23008ade61",0,586,0.36,0,3.142,1,0,"main","kmed x 2",1,"NT (Online)","Computer",0
"518",198,"60260429f50d5a23008ade61",0,1170,0.06,0,3.142,1,0,"main","kmed x 0.5",1,"NT (Online)","Computer",0
"519",199,"60260429f50d5a23008ade61",1,486,0.24,0,0,2,0,"main","kmed",1,"NT (Online)","Computer",0
"520",200,"60260429f50d5a23008ade61",0,885,0.06,0,3.142,1,0,"main","kmed x 0.5",1,"NT (Online)","Computer",0
"521",201,"60260429f50d5a23008ade61",0,509,0.24,90,3.142,1,0,"main","kmed",1,"NT (Online)","Computer",0
"522",202,"60260429f50d5a23008ade61",0,800,0.06,0,3.142,1,0,"main","kmed x 0.5",1,"NT (Online)","Computer",0
"523",203,"60260429f50d5a23008ade61",1,432,0.24,0,0,2,0,"main","kmed",1,"NT (Online)","Computer",0
"524",204,"60260429f50d5a23008ade61",1,508,0.36,0,0,2,0,"main","kmed x 2",1,"NT (Online)","Computer",0
"525",205,"60260429f50d5a23008ade61",0,425,0.36,0,3.142,1,0,"main","kmed x 2",1,"NT (Online)","Computer",0
"526",206,"60260429f50d5a23008ade61",1,415,0.24,90,0,2,0,"main","kmed",1,"NT (Online)","Computer",0
"527",207,"60260429f50d5a23008ade61",1,583,0.24,0,0,2,0,"main","kmed",1,"NT (Online)","Computer",0
"528",208,"60260429f50d5a23008ade61",1,544,0.36,0,0,2,0,"main","kmed x 2",1,"NT (Online)","Computer",0
"529",209,"60260429f50d5a23008ade61",1,1173,0.06,0,0,2,0,"main","kmed x 0.5",1,"NT (Online)","Computer",0
"530",210,"60260429f50d5a23008ade61",0,560,0.06,0,3.142,1,0,"main","kmed x 0.5",1,"NT (Online)","Computer",0
"531",211,"60260429f50d5a23008ade61",1,529,0.06,90,0,2,0,"main","kmed x 0.5",1,"NT (Online)","Computer",0
"532",212,"60260429f50d5a23008ade61",0,443,0.06,0,3.142,1,0,"main","kmed x 0.5",1,"NT (Online)","Computer",0
"533",213,"60260429f50d5a23008ade61",1,1214,0.06,0,0,2,0,"main","kmed x 0.5",1,"NT (Online)","Computer",0
"534",214,"60260429f50d5a23008ade61",1,527,0.06,0,0,2,0,"main","kmed x 0.5",1,"NT (Online)","Computer",0
"535",215,"60260429f50d5a23008ade61",0,556,0.06,0,3.142,1,0,"main","kmed x 0.5",1,"NT (Online)","Computer",0
"536",216,"60260429f50d5a23008ade61",1,550,0.06,90,0,2,0,"main","kmed x 0.5",1,"NT (Online)","Computer",0
"537",217,"60260429f50d5a23008ade61",1,551,0.06,0,0,2,0,"main","kmed x 0.5",1,"NT (Online)","Computer",0
"538",218,"60260429f50d5a23008ade61",1,456,0.36,0,0,2,0,"main","kmed x 2",1,"NT (Online)","Computer",0
"539",219,"60260429f50d5a23008ade61",1,523,0.24,0,0,2,0,"main","kmed",1,"NT (Online)","Computer",0
"540",220,"60260429f50d5a23008ade61",0,459,0.36,0,3.142,1,0,"main","kmed x 2",1,"NT (Online)","Computer",0
"541",221,"60260429f50d5a23008ade61",0,477,0.24,90,3.142,1,0,"main","kmed",1,"NT (Online)","Computer",0
"542",222,"60260429f50d5a23008ade61",1,514,0.36,0,0,2,0,"main","kmed x 2",1,"NT (Online)","Computer",0
"543",223,"60260429f50d5a23008ade61",0,467,0.24,0,3.142,1,0,"main","kmed",1,"NT (Online)","Computer",0
"544",224,"60260429f50d5a23008ade61",1,465,0.06,0,0,2,0,"main","kmed x 0.5",1,"NT (Online)","Computer",0
"545",225,"60260429f50d5a23008ade61",0,565,0.06,0,0,1,0,"main","kmed x 0.5",0,"NT (Online)","Computer",0
"546",226,"60260429f50d5a23008ade61",0,488,0.24,90,3.142,1,0,"main","kmed",1,"NT (Online)","Computer",0
"547",227,"60260429f50d5a23008ade61",0,482,0.06,0,3.142,1,0,"main","kmed x 0.5",1,"NT (Online)","Computer",0
"548",228,"60260429f50d5a23008ade61",1,577,0.06,0,0,2,0,"main","kmed x 0.5",1,"NT (Online)","Computer",0
"549",229,"60260429f50d5a23008ade61",0,475,0.06,0,3.142,1,0,"main","kmed x 0.5",1,"NT (Online)","Computer",0
"550",230,"60260429f50d5a23008ade61",0,1783,0.06,0,3.142,1,0,"main","kmed x 0.5",1,"NT (Online)","Computer",0
"551",231,"60260429f50d5a23008ade61",0,462,0.24,90,3.142,1,0,"main","kmed",1,"NT (Online)","Computer",0
"552",232,"60260429f50d5a23008ade61",1,569,0.06,0,0,2,0,"main","kmed x 0.5",1,"NT (Online)","Computer",0
"553",233,"60260429f50d5a23008ade61",1,1962,0.06,0,0,2,0,"main","kmed x 0.5",1,"NT (Online)","Computer",0
"554",234,"60260429f50d5a23008ade61",1,543,0.24,0,0,2,0,"main","kmed",1,"NT (Online)","Computer",0
"555",235,"60260429f50d5a23008ade61",0,575,0.06,0,3.142,1,0,"main","kmed x 0.5",1,"NT (Online)","Computer",0
"556",236,"60260429f50d5a23008ade61",0,506,0.24,80,3.142,1,0,"main","kmed",1,"NT (Online)","Computer",0
"557",237,"60260429f50d5a23008ade61",1,561,0.36,0,0,2,0,"main","kmed x 2",1,"NT (Online)","Computer",0
"558",238,"60260429f50d5a23008ade61",0,476,0.24,0,3.142,1,0,"main","kmed",1,"NT (Online)","Computer",0
"559",239,"60260429f50d5a23008ade61",1,491,0.06,0,0,2,0,"main","kmed x 0.5",1,"NT (Online)","Computer",0
"560",240,"60260429f50d5a23008ade61",1,594,0.06,0,0,2,0,"main","kmed x 0.5",1,"NT (Online)","Computer",0
"561",241,"60260429f50d5a23008ade61",0,465,0.36,90,3.142,1,0,"main","kmed x 2",1,"NT (Online)","Computer",0
"562",242,"60260429f50d5a23008ade61",0,1411,0.06,0,0,1,0,"main","kmed x 0.5",0,"NT (Online)","Computer",0
"563",243,"60260429f50d5a23008ade61",1,471,0.24,0,0,2,0,"main","kmed",1,"NT (Online)","Computer",0
"564",244,"60260429f50d5a23008ade61",0,469,0.24,0,3.142,1,0,"main","kmed",1,"NT (Online)","Computer",0
"565",245,"60260429f50d5a23008ade61",0,519,0.24,0,3.142,1,0,"main","kmed",1,"NT (Online)","Computer",0
"566",246,"60260429f50d5a23008ade61",1,614,0.06,80,3.142,2,0,"main","kmed x 0.5",0,"NT (Online)","Computer",0
"567",247,"60260429f50d5a23008ade61",0,492,0.36,0,3.142,1,0,"main","kmed x 2",1,"NT (Online)","Computer",0
"568",248,"60260429f50d5a23008ade61",1,1149,0.06,0,0,2,0,"main","kmed x 0.5",1,"NT (Online)","Computer",0
"569",249,"60260429f50d5a23008ade61",1,519,0.24,0,0,2,0,"main","kmed",1,"NT (Online)","Computer",0
"570",250,"60260429f50d5a23008ade61",1,732,0.06,0,0,2,0,"main","kmed x 0.5",1,"NT (Online)","Computer",0
"571",251,"60260429f50d5a23008ade61",0,479,0.36,90,3.142,1,0,"main","kmed x 2",1,"NT (Online)","Computer",0
"572",252,"60260429f50d5a23008ade61",1,631,0.06,0,0,2,0,"main","kmed x 0.5",1,"NT (Online)","Computer",0
"573",253,"60260429f50d5a23008ade61",1,740,0.06,0,0,2,0,"main","kmed x 0.5",1,"NT (Online)","Computer",0
"574",254,"60260429f50d5a23008ade61",0,555,0.36,0,3.142,1,0,"main","kmed x 2",1,"NT (Online)","Computer",0
"575",255,"60260429f50d5a23008ade61",1,531,0.36,0,0,2,0,"main","kmed x 2",1,"NT (Online)","Computer",0
"576",256,"60260429f50d5a23008ade61",1,520,0.24,90,0,2,0,"main","kmed",1,"NT (Online)","Computer",0
"577",257,"60260429f50d5a23008ade61",1,888,0.06,0,0,2,0,"main","kmed x 0.5",1,"NT (Online)","Computer",0
"578",258,"60260429f50d5a23008ade61",1,574,0.36,0,0,2,0,"main","kmed x 2",1,"NT (Online)","Computer",0
"579",259,"60260429f50d5a23008ade61",1,827,0.06,0,0,2,0,"main","kmed x 0.5",1,"NT (Online)","Computer",0
"580",260,"60260429f50d5a23008ade61",1,659,0.36,0,0,2,0,"main","kmed x 2",1,"NT (Online)","Computer",0
"581",261,"60260429f50d5a23008ade61",0,1411,0.06,60,3.142,1,0,"main","kmed x 0.5",1,"NT (Online)","Computer",0
"582",262,"60260429f50d5a23008ade61",1,611,0.24,0,0,2,0,"main","kmed",1,"NT (Online)","Computer",0
"583",263,"60260429f50d5a23008ade61",0,517,0.24,0,3.142,1,0,"main","kmed",1,"NT (Online)","Computer",0
"584",264,"60260429f50d5a23008ade61",0,475,0.24,0,3.142,1,0,"main","kmed",1,"NT (Online)","Computer",0
"585",265,"60260429f50d5a23008ade61",1,502,0.24,0,0,2,0,"main","kmed",1,"NT (Online)","Computer",0
"586",266,"60260429f50d5a23008ade61",1,682,0.36,90,0,2,0,"main","kmed x 2",1,"NT (Online)","Computer",0
"587",267,"60260429f50d5a23008ade61",0,511,0.36,0,3.142,1,0,"main","kmed x 2",1,"NT (Online)","Computer",0
"588",268,"60260429f50d5a23008ade61",1,557,0.06,0,0,2,0,"main","kmed x 0.5",1,"NT (Online)","Computer",0
"589",269,"60260429f50d5a23008ade61",1,719,0.06,0,0,2,0,"main","kmed x 0.5",1,"NT (Online)","Computer",0
"590",270,"60260429f50d5a23008ade61",0,579,0.36,0,3.142,1,0,"main","kmed x 2",1,"NT (Online)","Computer",0
"591",271,"60260429f50d5a23008ade61",0,650,0.06,70,3.142,1,0,"main","kmed x 0.5",1,"NT (Online)","Computer",0
"592",272,"60260429f50d5a23008ade61",1,616,0.36,0,0,2,0,"main","kmed x 2",1,"NT (Online)","Computer",0
"593",273,"60260429f50d5a23008ade61",0,1118,0.06,0,3.142,1,0,"main","kmed x 0.5",1,"NT (Online)","Computer",0
"594",274,"60260429f50d5a23008ade61",0,1150,0.06,0,3.142,1,0,"main","kmed x 0.5",1,"NT (Online)","Computer",0
"595",275,"60260429f50d5a23008ade61",1,519,0.24,0,0,2,0,"main","kmed",1,"NT (Online)","Computer",0
"596",276,"60260429f50d5a23008ade61",0,460,0.24,90,3.142,1,0,"main","kmed",1,"NT (Online)","Computer",0
"597",277,"60260429f50d5a23008ade61",1,580,0.24,0,0,2,0,"main","kmed",1,"NT (Online)","Computer",0
"598",278,"60260429f50d5a23008ade61",1,549,0.36,0,0,2,0,"main","kmed x 2",1,"NT (Online)","Computer",0
"599",279,"60260429f50d5a23008ade61",1,649,0.06,0,3.142,2,0,"main","kmed x 0.5",0,"NT (Online)","Computer",0
"600",280,"60260429f50d5a23008ade61",0,1108,0.06,0,3.142,1,0,"main","kmed x 0.5",1,"NT (Online)","Computer",0
"601",281,"60260429f50d5a23008ade61",0,470,0.36,90,3.142,1,0,"main","kmed x 2",1,"NT (Online)","Computer",0
"602",282,"60260429f50d5a23008ade61",0,833,0.06,0,0,1,0,"main","kmed x 0.5",0,"NT (Online)","Computer",0
"603",283,"60260429f50d5a23008ade61",0,532,0.24,0,3.142,1,0,"main","kmed",1,"NT (Online)","Computer",0
"604",284,"60260429f50d5a23008ade61",1,518,0.36,0,0,2,0,"main","kmed x 2",1,"NT (Online)","Computer",0
"605",285,"60260429f50d5a23008ade61",1,615,0.06,0,0,2,0,"main","kmed x 0.5",1,"NT (Online)","Computer",0
"606",286,"60260429f50d5a23008ade61",0,436,0.24,90,3.142,1,0,"main","kmed",1,"NT (Online)","Computer",0
"607",287,"60260429f50d5a23008ade61",1,593,0.36,0,0,2,0,"main","kmed x 2",1,"NT (Online)","Computer",0
"608",288,"60260429f50d5a23008ade61",0,469,0.36,0,3.142,1,0,"main","kmed x 2",1,"NT (Online)","Computer",0
"609",289,"60260429f50d5a23008ade61",0,540,0.06,0,3.142,1,0,"main","kmed x 0.5",1,"NT (Online)","Computer",0
"610",290,"60260429f50d5a23008ade61",1,477,0.36,0,0,2,0,"main","kmed x 2",1,"NT (Online)","Computer",0
"611",291,"60260429f50d5a23008ade61",1,487,0.24,90,0,2,0,"main","kmed",1,"NT (Online)","Computer",0
"612",292,"60260429f50d5a23008ade61",0,460,0.36,0,3.142,1,0,"main","kmed x 2",1,"NT (Online)","Computer",0
"613",293,"60260429f50d5a23008ade61",1,512,0.36,0,0,2,0,"main","kmed x 2",1,"NT (Online)","Computer",0
"614",294,"60260429f50d5a23008ade61",0,540,0.06,0,3.142,1,0,"main","kmed x 0.5",1,"NT (Online)","Computer",0
"615",295,"60260429f50d5a23008ade61",0,565,0.36,0,3.142,1,0,"main","kmed x 2",1,"NT (Online)","Computer",0
"616",296,"60260429f50d5a23008ade61",0,586,0.06,90,3.142,1,0,"main","kmed x 0.5",1,"NT (Online)","Computer",0
"617",297,"60260429f50d5a23008ade61",1,520,0.24,0,0,2,0,"main","kmed",1,"NT (Online)","Computer",0
"618",298,"60260429f50d5a23008ade61",0,1214,0.06,0,0,1,0,"main","kmed x 0.5",0,"NT (Online)","Computer",0
"619",299,"60260429f50d5a23008ade61",0,483,0.24,0,3.142,1,0,"main","kmed",1,"NT (Online)","Computer",0
"620",300,"60260429f50d5a23008ade61",1,479,0.06,0,0,2,0,"main","kmed x 0.5",1,"NT (Online)","Computer",0
"621",301,"60260429f50d5a23008ade61",0,449,0.36,90,3.142,1,0,"main","kmed x 2",1,"NT (Online)","Computer",0
"622",302,"60260429f50d5a23008ade61",0,481,0.36,0,3.142,1,0,"main","kmed x 2",1,"NT (Online)","Computer",0
"623",303,"60260429f50d5a23008ade61",1,564,0.36,0,0,2,0,"main","kmed x 2",1,"NT (Online)","Computer",0
"624",304,"60260429f50d5a23008ade61",0,464,0.36,0,3.142,1,0,"main","kmed x 2",1,"NT (Online)","Computer",0
"625",305,"60260429f50d5a23008ade61",1,573,0.24,0,0,2,0,"main","kmed",1,"NT (Online)","Computer",0
"626",306,"60260429f50d5a23008ade61",1,685,0.24,90,0,2,0,"main","kmed",1,"NT (Online)","Computer",0
"627",307,"60260429f50d5a23008ade61",1,2024,0.06,0,0,2,0,"main","kmed x 0.5",1,"NT (Online)","Computer",0
"628",308,"60260429f50d5a23008ade61",0,458,0.24,0,3.142,1,0,"main","kmed",1,"NT (Online)","Computer",0
"629",309,"60260429f50d5a23008ade61",1,583,0.06,0,0,2,0,"main","kmed x 0.5",1,"NT (Online)","Computer",0
"630",310,"60260429f50d5a23008ade61",0,537,0.06,0,3.142,1,0,"main","kmed x 0.5",1,"NT (Online)","Computer",0
"631",311,"60260429f50d5a23008ade61",1,532,0.06,90,0,2,0,"main","kmed x 0.5",1,"NT (Online)","Computer",0
"632",312,"60260429f50d5a23008ade61",0,495,0.36,0,3.142,1,0,"main","kmed x 2",1,"NT (Online)","Computer",0
"633",313,"60260429f50d5a23008ade61",0,443,0.24,0,3.142,1,0,"main","kmed",1,"NT (Online)","Computer",0
"634",314,"60260429f50d5a23008ade61",0,404,0.06,0,3.142,1,0,"main","kmed x 0.5",1,"NT (Online)","Computer",0
"635",315,"60260429f50d5a23008ade61",0,602,0.06,0,0,1,0,"main","kmed x 0.5",0,"NT (Online)","Computer",0
"636",316,"60260429f50d5a23008ade61",0,544,0.06,80,0,1,0,"main","kmed x 0.5",0,"NT (Online)","Computer",0
"637",317,"60260429f50d5a23008ade61",0,457,0.36,0,3.142,1,0,"main","kmed x 2",1,"NT (Online)","Computer",0
"638",318,"60260429f50d5a23008ade61",1,472,0.36,0,0,2,0,"main","kmed x 2",1,"NT (Online)","Computer",0
"639",319,"60260429f50d5a23008ade61",0,411,0.24,0,3.142,1,0,"main","kmed",1,"NT (Online)","Computer",0
"640",320,"60260429f50d5a23008ade61",1,548,0.24,0,0,2,0,"main","kmed",1,"NT (Online)","Computer",0
"641",1,"6083f5368c421b6547fd05c1",1,834,0.2,70,3.142,1,0,"calibration","kmed x 2",1,"NT (Online)","Computer",0
"642",2,"6083f5368c421b6547fd05c1",1,829,0.2,0,0,2,0,"calibration","kmed x 2",1,"NT (Online)","Computer",0
"643",3,"6083f5368c421b6547fd05c1",1,642,0.2,0,3.142,1,0,"calibration","kmed x 2",1,"NT (Online)","Computer",0
"644",4,"6083f5368c421b6547fd05c1",1,417,0.2,0,3.142,1,0,"calibration","kmed x 2",1,"NT (Online)","Computer",0
"645",5,"6083f5368c421b6547fd05c1",1,459,0.19,0,0,2,0,"calibration","kmed",1,"NT (Online)","Computer",0
"646",6,"6083f5368c421b6547fd05c1",1,403,0.19,60,0,2,0,"calibration","kmed",1,"NT (Online)","Computer",0
"647",7,"6083f5368c421b6547fd05c1",1,470,0.18,0,0,2,0,"calibration","kmed",1,"NT (Online)","Computer",0
"648",8,"6083f5368c421b6547fd05c1",1,466,0.18,0,3.142,1,0,"calibration","kmed",1,"NT (Online)","Computer",0
"649",9,"6083f5368c421b6547fd05c1",1,395,0.17,0,0,2,0,"calibration","kmed",1,"NT (Online)","Computer",0
"650",10,"6083f5368c421b6547fd05c1",1,384,0.17,0,0,2,0,"calibration","kmed",1,"NT (Online)","Computer",0
"651",11,"6083f5368c421b6547fd05c1",1,416,0.16,70,3.142,1,0,"calibration","kmed",1,"NT (Online)","Computer",0
"652",12,"6083f5368c421b6547fd05c1",1,463,0.16,0,0,2,0,"calibration","kmed",1,"NT (Online)","Computer",0
"653",13,"6083f5368c421b6547fd05c1",1,536,0.15,0,0,2,0,"calibration","kmed",1,"NT (Online)","Computer",0
"654",14,"6083f5368c421b6547fd05c1",1,1022,0.15,0,0,2,0,"calibration","kmed",1,"NT (Online)","Computer",0
"655",15,"6083f5368c421b6547fd05c1",1,450,0.14,0,3.142,1,0,"calibration","kmed",1,"NT (Online)","Computer",0
"656",16,"6083f5368c421b6547fd05c1",1,680,0.14,60,3.142,1,0,"calibration","kmed",1,"NT (Online)","Computer",0
"657",17,"6083f5368c421b6547fd05c1",0,2171,0.13,0,0,1,0,"calibration","kmed",0,"NT (Online)","Computer",0
"658",18,"6083f5368c421b6547fd05c1",0,676,0.14,0,0,1,0,"calibration","kmed",0,"NT (Online)","Computer",0
"659",19,"6083f5368c421b6547fd05c1",0,688,0.15,0,0,1,0,"calibration","kmed",0,"NT (Online)","Computer",0
"660",20,"6083f5368c421b6547fd05c1",1,486,0.16,0,3.142,1,0,"calibration","kmed",1,"NT (Online)","Computer",0
"661",21,"6083f5368c421b6547fd05c1",1,2064,0.16,50,3.142,1,0,"calibration","kmed",1,"NT (Online)","Computer",0
"662",22,"6083f5368c421b6547fd05c1",1,524,0.15,0,0,2,0,"calibration","kmed",1,"NT (Online)","Computer",0
"663",23,"6083f5368c421b6547fd05c1",1,708,0.15,0,0,2,0,"calibration","kmed",1,"NT (Online)","Computer",0
"664",24,"6083f5368c421b6547fd05c1",1,649,0.14,0,3.142,1,0,"calibration","kmed",1,"NT (Online)","Computer",0
"665",25,"6083f5368c421b6547fd05c1",1,433,0.14,0,3.142,1,0,"calibration","kmed",1,"NT (Online)","Computer",0
"666",26,"6083f5368c421b6547fd05c1",0,620,0.13,50,3.142,2,0,"calibration","kmed",0,"NT (Online)","Computer",0
"667",27,"6083f5368c421b6547fd05c1",1,673,0.14,0,3.142,1,0,"calibration","kmed",1,"NT (Online)","Computer",0
"668",28,"6083f5368c421b6547fd05c1",1,364,0.14,0,0,2,0,"calibration","kmed",1,"NT (Online)","Computer",0
"669",29,"6083f5368c421b6547fd05c1",1,419,0.13,0,3.142,1,0,"calibration","kmed",1,"NT (Online)","Computer",0
"670",30,"6083f5368c421b6547fd05c1",1,247,0.13,0,0,2,0,"calibration","kmed",1,"NT (Online)","Computer",0
"671",31,"6083f5368c421b6547fd05c1",1,2681,0.12,50,0,2,0,"calibration","kmed",1,"NT (Online)","Computer",0
"672",32,"6083f5368c421b6547fd05c1",1,422,0.12,0,3.142,1,0,"calibration","kmed",1,"NT (Online)","Computer",0
"673",33,"6083f5368c421b6547fd05c1",0,438,0.11,0,3.142,2,0,"calibration","kmed",0,"NT (Online)","Computer",0
"674",34,"6083f5368c421b6547fd05c1",1,650,0.12,0,0,2,0,"calibration","kmed",1,"NT (Online)","Computer",0
"675",35,"6083f5368c421b6547fd05c1",1,500,0.12,0,0,2,0,"calibration","kmed",1,"NT (Online)","Computer",0
"676",36,"6083f5368c421b6547fd05c1",1,477,0.11,60,0,2,0,"calibration","kmed",1,"NT (Online)","Computer",0
"677",37,"6083f5368c421b6547fd05c1",1,472,0.11,0,0,2,0,"calibration","kmed",1,"NT (Online)","Computer",0
"678",38,"6083f5368c421b6547fd05c1",0,810,0.1,0,0,1,0,"calibration","kmed",0,"NT (Online)","Computer",0
"679",39,"6083f5368c421b6547fd05c1",1,830,0.11,0,0,2,0,"calibration","kmed",1,"NT (Online)","Computer",0
"680",40,"6083f5368c421b6547fd05c1",1,2022,0.11,0,3.142,1,0,"calibration","kmed",1,"NT (Online)","Computer",0
"681",41,"6083f5368c421b6547fd05c1",1,950,0.1,80,3.142,1,0,"calibration","kmed",1,"NT (Online)","Computer",0
"682",42,"6083f5368c421b6547fd05c1",0,458,0.1,0,0,1,0,"calibration","kmed",0,"NT (Online)","Computer",0
"683",43,"6083f5368c421b6547fd05c1",1,848,0.11,0,3.142,1,0,"calibration","kmed",1,"NT (Online)","Computer",0
"684",44,"6083f5368c421b6547fd05c1",1,583,0.11,0,3.142,1,0,"calibration","kmed",1,"NT (Online)","Computer",0
"685",45,"6083f5368c421b6547fd05c1",1,560,0.1,0,0,2,0,"calibration","kmed",1,"NT (Online)","Computer",0
"686",46,"6083f5368c421b6547fd05c1",1,903,0.1,50,0,2,0,"calibration","kmed",1,"NT (Online)","Computer",0
"687",47,"6083f5368c421b6547fd05c1",1,742,0.09,0,0,2,0,"calibration","kmed",1,"NT (Online)","Computer",0
"688",48,"6083f5368c421b6547fd05c1",0,629,0.09,0,3.142,2,0,"calibration","kmed",0,"NT (Online)","Computer",0
"689",49,"6083f5368c421b6547fd05c1",1,617,0.1,0,3.142,1,0,"calibration","kmed",1,"NT (Online)","Computer",0
"690",50,"6083f5368c421b6547fd05c1",1,833,0.1,0,0,2,0,"calibration","kmed",1,"NT (Online)","Computer",0
"691",51,"6083f5368c421b6547fd05c1",1,2135,0.09,50,3.142,1,0,"calibration","kmed",1,"NT (Online)","Computer",0
"692",52,"6083f5368c421b6547fd05c1",0,1693,0.09,0,0,1,0,"calibration","kmed",0,"NT (Online)","Computer",0
"693",53,"6083f5368c421b6547fd05c1",1,370,0.1,0,3.142,1,0,"calibration","kmed",1,"NT (Online)","Computer",0
"694",54,"6083f5368c421b6547fd05c1",1,1697,0.1,0,0,2,0,"calibration","kmed",1,"NT (Online)","Computer",0
"695",55,"6083f5368c421b6547fd05c1",1,463,0.09,0,0,2,0,"calibration","kmed",1,"NT (Online)","Computer",0
"696",56,"6083f5368c421b6547fd05c1",1,452,0.09,60,3.142,1,0,"calibration","kmed",1,"NT (Online)","Computer",0
"697",57,"6083f5368c421b6547fd05c1",1,751,0.08,0,0,2,0,"calibration","kmed",1,"NT (Online)","Computer",0
"698",58,"6083f5368c421b6547fd05c1",1,514,0.08,0,3.142,1,0,"calibration","kmed",1,"NT (Online)","Computer",0
"699",59,"6083f5368c421b6547fd05c1",0,1485,0.07,0,3.142,2,0,"calibration","kmed x 0.5",0,"NT (Online)","Computer",0
"700",60,"6083f5368c421b6547fd05c1",1,1543,0.08,0,0,2,0,"calibration","kmed",1,"NT (Online)","Computer",0
"701",61,"6083f5368c421b6547fd05c1",1,836,0.08,60,3.142,1,0,"calibration","kmed",1,"NT (Online)","Computer",0
"702",62,"6083f5368c421b6547fd05c1",0,429,0.07,0,3.142,2,0,"calibration","kmed x 0.5",0,"NT (Online)","Computer",0
"703",63,"6083f5368c421b6547fd05c1",0,865,0.08,0,3.142,2,0,"calibration","kmed",0,"NT (Online)","Computer",0
"704",64,"6083f5368c421b6547fd05c1",0,507,0.09,0,0,1,0,"calibration","kmed",0,"NT (Online)","Computer",0
"705",65,"6083f5368c421b6547fd05c1",1,638,0.1,0,3.142,1,0,"calibration","kmed",1,"NT (Online)","Computer",0
"706",66,"6083f5368c421b6547fd05c1",0,681,0.1,50,0,1,0,"calibration","kmed",0,"NT (Online)","Computer",0
"707",67,"6083f5368c421b6547fd05c1",1,408,0.11,0,0,2,0,"calibration","kmed",1,"NT (Online)","Computer",0
"708",68,"6083f5368c421b6547fd05c1",1,485,0.11,0,0,2,0,"calibration","kmed",1,"NT (Online)","Computer",0
"709",69,"6083f5368c421b6547fd05c1",1,532,0.1,0,3.142,1,0,"calibration","kmed",1,"NT (Online)","Computer",0
"710",70,"6083f5368c421b6547fd05c1",1,668,0.1,0,3.142,1,0,"calibration","kmed",1,"NT (Online)","Computer",0
"711",71,"6083f5368c421b6547fd05c1",1,470,0.09,50,0,2,0,"calibration","kmed",1,"NT (Online)","Computer",0
"712",72,"6083f5368c421b6547fd05c1",1,572,0.09,0,3.142,1,0,"calibration","kmed",1,"NT (Online)","Computer",0
"713",73,"6083f5368c421b6547fd05c1",0,470,0.08,0,3.142,2,0,"calibration","kmed",0,"NT (Online)","Computer",0
"714",74,"6083f5368c421b6547fd05c1",0,1210,0.09,0,3.142,2,0,"calibration","kmed",0,"NT (Online)","Computer",0
"715",75,"6083f5368c421b6547fd05c1",0,713,0.1,0,3.142,2,0,"calibration","kmed",0,"NT (Online)","Computer",0
"716",76,"6083f5368c421b6547fd05c1",0,909,0.11,50,0,1,0,"calibration","kmed",0,"NT (Online)","Computer",0
"717",77,"6083f5368c421b6547fd05c1",1,661,0.12,0,3.142,1,0,"calibration","kmed",1,"NT (Online)","Computer",0
"718",78,"6083f5368c421b6547fd05c1",0,597,0.12,0,0,1,0,"calibration","kmed",0,"NT (Online)","Computer",0
"719",79,"6083f5368c421b6547fd05c1",1,693,0.13,0,3.142,1,0,"calibration","kmed",1,"NT (Online)","Computer",0
"720",80,"6083f5368c421b6547fd05c1",1,553,0.13,0,0,2,0,"calibration","kmed",1,"NT (Online)","Computer",0
"721",81,"6083f5368c421b6547fd05c1",0,498,0.12,60,0,1,0,"calibration","kmed",0,"NT (Online)","Computer",0
"722",82,"6083f5368c421b6547fd05c1",0,539,0.13,0,3.142,2,0,"calibration","kmed",0,"NT (Online)","Computer",0
"723",83,"6083f5368c421b6547fd05c1",0,947,0.14,0,0,1,0,"calibration","kmed",0,"NT (Online)","Computer",0
"724",84,"6083f5368c421b6547fd05c1",1,3068,0.15,0,0,2,0,"calibration","kmed",1,"NT (Online)","Computer",0
"725",85,"6083f5368c421b6547fd05c1",0,736,0.15,0,0,1,0,"calibration","kmed",0,"NT (Online)","Computer",0
"726",86,"6083f5368c421b6547fd05c1",1,1459,0.16,50,0,2,0,"calibration","kmed",1,"NT (Online)","Computer",0
"727",87,"6083f5368c421b6547fd05c1",1,1308,0.16,0,3.142,1,0,"calibration","kmed",1,"NT (Online)","Computer",0
"728",88,"6083f5368c421b6547fd05c1",0,517,0.15,0,3.142,2,0,"calibration","kmed",0,"NT (Online)","Computer",0
"729",89,"6083f5368c421b6547fd05c1",1,644,0.16,0,3.142,1,0,"calibration","kmed",1,"NT (Online)","Computer",0
"730",90,"6083f5368c421b6547fd05c1",0,493,0.16,0,3.142,2,0,"calibration","kmed",0,"NT (Online)","Computer",0
"731",91,"6083f5368c421b6547fd05c1",1,754,0.17,50,0,2,0,"calibration","kmed",1,"NT (Online)","Computer",0
"732",92,"6083f5368c421b6547fd05c1",1,1443,0.17,0,3.142,1,0,"calibration","kmed",1,"NT (Online)","Computer",0
"733",93,"6083f5368c421b6547fd05c1",1,630,0.16,0,3.142,1,0,"calibration","kmed",1,"NT (Online)","Computer",0
"734",94,"6083f5368c421b6547fd05c1",1,616,0.16,0,3.142,1,0,"calibration","kmed",1,"NT (Online)","Computer",0
"735",95,"6083f5368c421b6547fd05c1",0,1162,0.15,0,3.142,2,0,"calibration","kmed",0,"NT (Online)","Computer",0
"736",96,"6083f5368c421b6547fd05c1",1,1026,0.16,50,3.142,1,0,"calibration","kmed",1,"NT (Online)","Computer",0
"737",97,"6083f5368c421b6547fd05c1",1,771,0.16,0,0,2,0,"calibration","kmed",1,"NT (Online)","Computer",0
"738",98,"6083f5368c421b6547fd05c1",1,588,0.15,0,0,2,0,"calibration","kmed",1,"NT (Online)","Computer",0
"739",99,"6083f5368c421b6547fd05c1",1,538,0.15,0,0,2,0,"calibration","kmed",1,"NT (Online)","Computer",0
"740",100,"6083f5368c421b6547fd05c1",0,842,0.14,0,0,1,0,"calibration","kmed",0,"NT (Online)","Computer",0
"741",101,"6083f5368c421b6547fd05c1",0,1205,0.15,50,0,1,0,"calibration","kmed",0,"NT (Online)","Computer",0
"742",102,"6083f5368c421b6547fd05c1",1,645,0.16,0,3.142,1,0,"calibration","kmed",1,"NT (Online)","Computer",0
"743",103,"6083f5368c421b6547fd05c1",1,649,0.16,0,3.142,1,0,"calibration","kmed",1,"NT (Online)","Computer",0
"744",104,"6083f5368c421b6547fd05c1",1,646,0.15,0,0,2,0,"calibration","kmed",1,"NT (Online)","Computer",0
"745",105,"6083f5368c421b6547fd05c1",1,598,0.15,0,3.142,1,0,"calibration","kmed",1,"NT (Online)","Computer",0
"746",106,"6083f5368c421b6547fd05c1",1,587,0.14,50,0,2,0,"calibration","kmed",1,"NT (Online)","Computer",0
"747",107,"6083f5368c421b6547fd05c1",0,513,0.14,0,0,1,0,"calibration","kmed",0,"NT (Online)","Computer",0
"748",108,"6083f5368c421b6547fd05c1",0,670,0.15,0,3.142,2,0,"calibration","kmed",0,"NT (Online)","Computer",0
"749",109,"6083f5368c421b6547fd05c1",1,825,0.16,0,3.142,1,0,"calibration","kmed",1,"NT (Online)","Computer",0
"750",110,"6083f5368c421b6547fd05c1",1,3031,0.16,0,3.142,1,0,"calibration","kmed",1,"NT (Online)","Computer",0
"751",111,"6083f5368c421b6547fd05c1",1,1175,0.15,50,0,2,0,"calibration","kmed",1,"NT (Online)","Computer",0
"752",112,"6083f5368c421b6547fd05c1",1,1350,0.15,0,3.142,1,0,"calibration","kmed",1,"NT (Online)","Computer",0
"753",113,"6083f5368c421b6547fd05c1",1,1012,0.14,0,0,2,0,"calibration","kmed",1,"NT (Online)","Computer",0
"754",114,"6083f5368c421b6547fd05c1",0,460,0.14,0,3.142,2,0,"calibration","kmed",0,"NT (Online)","Computer",0
"755",115,"6083f5368c421b6547fd05c1",1,511,0.15,0,0,2,0,"calibration","kmed",1,"NT (Online)","Computer",0
"756",116,"6083f5368c421b6547fd05c1",0,1076,0.15,50,3.142,2,0,"calibration","kmed",0,"NT (Online)","Computer",0
"757",117,"6083f5368c421b6547fd05c1",1,966,0.16,0,0,2,0,"calibration","kmed",1,"NT (Online)","Computer",0
"758",118,"6083f5368c421b6547fd05c1",1,939,0.16,0,0,2,0,"calibration","kmed",1,"NT (Online)","Computer",0
"759",119,"6083f5368c421b6547fd05c1",1,603,0.15,0,0,2,0,"calibration","kmed",1,"NT (Online)","Computer",0
"760",120,"6083f5368c421b6547fd05c1",1,1720,0.15,0,3.142,1,0,"calibration","kmed",1,"NT (Online)","Computer",0
"761",121,"6083f5368c421b6547fd05c1",1,565,0.45,80,0,2,0,"main","kmed x 2",1,"NT (Online)","Computer",0
"762",122,"6083f5368c421b6547fd05c1",0,477,0.3,0,3.142,1,0,"main","kmed",1,"NT (Online)","Computer",0
"763",123,"6083f5368c421b6547fd05c1",0,441,0.075,0,3.142,1,0,"main","kmed x 0.5",1,"NT (Online)","Computer",0
"764",124,"6083f5368c421b6547fd05c1",0,108,0.45,0,3.142,1,0,"main","kmed x 2",1,"NT (Online)","Computer",0
"765",125,"6083f5368c421b6547fd05c1",0,570,0.075,0,3.142,1,0,"main","kmed x 0.5",1,"NT (Online)","Computer",0
"766",126,"6083f5368c421b6547fd05c1",1,1067,0.3,80,0,2,0,"main","kmed",1,"NT (Online)","Computer",0
"767",127,"6083f5368c421b6547fd05c1",1,810,0.075,0,0,2,0,"main","kmed x 0.5",1,"NT (Online)","Computer",0
"768",128,"6083f5368c421b6547fd05c1",0,671,0.3,0,3.142,1,0,"main","kmed",1,"NT (Online)","Computer",0
"769",129,"6083f5368c421b6547fd05c1",1,862,0.075,0,0,2,0,"main","kmed x 0.5",1,"NT (Online)","Computer",0
"770",130,"6083f5368c421b6547fd05c1",0,906,0.3,0,3.142,1,0,"main","kmed",1,"NT (Online)","Computer",0
"771",131,"6083f5368c421b6547fd05c1",0,787,0.3,70,3.142,1,0,"main","kmed",1,"NT (Online)","Computer",0
"772",132,"6083f5368c421b6547fd05c1",0,482,0.45,0,3.142,1,0,"main","kmed x 2",1,"NT (Online)","Computer",0
"773",133,"6083f5368c421b6547fd05c1",1,498,0.075,0,0,2,0,"main","kmed x 0.5",1,"NT (Online)","Computer",0
"774",134,"6083f5368c421b6547fd05c1",1,465,0.3,0,0,2,0,"main","kmed",1,"NT (Online)","Computer",0
"775",135,"6083f5368c421b6547fd05c1",1,668,0.075,0,0,2,0,"main","kmed x 0.5",1,"NT (Online)","Computer",0
"776",136,"6083f5368c421b6547fd05c1",0,463,0.3,70,3.142,1,0,"main","kmed",1,"NT (Online)","Computer",0
"777",137,"6083f5368c421b6547fd05c1",0,508,0.3,0,3.142,1,0,"main","kmed",1,"NT (Online)","Computer",0
"778",138,"6083f5368c421b6547fd05c1",0,446,0.3,0,3.142,1,0,"main","kmed",1,"NT (Online)","Computer",0
"779",139,"6083f5368c421b6547fd05c1",1,403,0.3,0,0,2,0,"main","kmed",1,"NT (Online)","Computer",0
"780",140,"6083f5368c421b6547fd05c1",1,203,0.45,0,0,2,0,"main","kmed x 2",1,"NT (Online)","Computer",0
"781",141,"6083f5368c421b6547fd05c1",1,904,0.075,60,3.142,2,0,"main","kmed x 0.5",0,"NT (Online)","Computer",0
"782",142,"6083f5368c421b6547fd05c1",1,551,0.45,0,0,2,0,"main","kmed x 2",1,"NT (Online)","Computer",0
"783",143,"6083f5368c421b6547fd05c1",1,516,0.45,0,0,2,0,"main","kmed x 2",1,"NT (Online)","Computer",0
"784",144,"6083f5368c421b6547fd05c1",0,463,0.3,0,3.142,1,0,"main","kmed",1,"NT (Online)","Computer",0
"785",145,"6083f5368c421b6547fd05c1",0,492,0.3,0,3.142,1,0,"main","kmed",1,"NT (Online)","Computer",0
"786",146,"6083f5368c421b6547fd05c1",1,2330,0.075,60,3.142,2,0,"main","kmed x 0.5",0,"NT (Online)","Computer",0
"787",147,"6083f5368c421b6547fd05c1",1,471,0.45,0,0,2,0,"main","kmed x 2",1,"NT (Online)","Computer",0
"788",148,"6083f5368c421b6547fd05c1",0,432,0.3,0,3.142,1,0,"main","kmed",1,"NT (Online)","Computer",0
"789",149,"6083f5368c421b6547fd05c1",1,461,0.3,0,0,2,0,"main","kmed",1,"NT (Online)","Computer",0
"790",150,"6083f5368c421b6547fd05c1",1,457,0.45,0,0,2,0,"main","kmed x 2",1,"NT (Online)","Computer",0
"791",151,"6083f5368c421b6547fd05c1",1,1083,0.075,50,3.142,2,0,"main","kmed x 0.5",0,"NT (Online)","Computer",0
"792",152,"6083f5368c421b6547fd05c1",0,463,0.45,0,3.142,1,0,"main","kmed x 2",1,"NT (Online)","Computer",0
"793",153,"6083f5368c421b6547fd05c1",1,417,0.3,0,0,2,0,"main","kmed",1,"NT (Online)","Computer",0
"794",154,"6083f5368c421b6547fd05c1",1,1147,0.075,0,3.142,2,0,"main","kmed x 0.5",0,"NT (Online)","Computer",0
"795",155,"6083f5368c421b6547fd05c1",0,810,0.075,0,3.142,1,0,"main","kmed x 0.5",1,"NT (Online)","Computer",0
"796",156,"6083f5368c421b6547fd05c1",1,752,0.075,50,3.142,2,0,"main","kmed x 0.5",0,"NT (Online)","Computer",0
"797",157,"6083f5368c421b6547fd05c1",0,455,0.45,0,3.142,1,0,"main","kmed x 2",1,"NT (Online)","Computer",0
"798",158,"6083f5368c421b6547fd05c1",1,503,0.3,0,0,2,0,"main","kmed",1,"NT (Online)","Computer",0
"799",159,"6083f5368c421b6547fd05c1",1,857,0.075,0,3.142,2,0,"main","kmed x 0.5",0,"NT (Online)","Computer",0
"800",160,"6083f5368c421b6547fd05c1",1,417,0.3,0,0,2,0,"main","kmed",1,"NT (Online)","Computer",0
"801",161,"6083f5368c421b6547fd05c1",1,499,0.3,50,0,2,0,"main","kmed",1,"NT (Online)","Computer",0
"802",162,"6083f5368c421b6547fd05c1",1,441,0.45,0,0,2,0,"main","kmed x 2",1,"NT (Online)","Computer",0
"803",163,"6083f5368c421b6547fd05c1",1,499,0.45,0,0,2,0,"main","kmed x 2",1,"NT (Online)","Computer",0
"804",164,"6083f5368c421b6547fd05c1",0,598,0.3,0,3.142,1,0,"main","kmed",1,"NT (Online)","Computer",0
"805",165,"6083f5368c421b6547fd05c1",0,718,0.075,0,3.142,1,0,"main","kmed x 0.5",1,"NT (Online)","Computer",0
"806",166,"6083f5368c421b6547fd05c1",1,506,0.45,60,0,2,0,"main","kmed x 2",1,"NT (Online)","Computer",0
"807",167,"6083f5368c421b6547fd05c1",0,713,0.075,0,0,1,0,"main","kmed x 0.5",0,"NT (Online)","Computer",0
"808",168,"6083f5368c421b6547fd05c1",0,626,0.3,0,3.142,1,0,"main","kmed",1,"NT (Online)","Computer",0
"809",169,"6083f5368c421b6547fd05c1",0,580,0.075,0,0,1,0,"main","kmed x 0.5",0,"NT (Online)","Computer",0
"810",170,"6083f5368c421b6547fd05c1",1,584,0.3,0,0,2,0,"main","kmed",1,"NT (Online)","Computer",0
"811",171,"6083f5368c421b6547fd05c1",1,558,0.45,60,0,2,0,"main","kmed x 2",1,"NT (Online)","Computer",0
"812",172,"6083f5368c421b6547fd05c1",0,734,0.075,0,3.142,1,0,"main","kmed x 0.5",1,"NT (Online)","Computer",0
"813",173,"6083f5368c421b6547fd05c1",1,534,0.075,0,0,2,0,"main","kmed x 0.5",1,"NT (Online)","Computer",0
"814",174,"6083f5368c421b6547fd05c1",0,506,0.3,0,3.142,1,0,"main","kmed",1,"NT (Online)","Computer",0
"815",175,"6083f5368c421b6547fd05c1",0,411,0.45,0,3.142,1,0,"main","kmed x 2",1,"NT (Online)","Computer",0
"816",176,"6083f5368c421b6547fd05c1",0,483,0.3,70,3.142,1,0,"main","kmed",1,"NT (Online)","Computer",0
"817",177,"6083f5368c421b6547fd05c1",0,458,0.3,0,3.142,1,0,"main","kmed",1,"NT (Online)","Computer",0
"818",178,"6083f5368c421b6547fd05c1",1,411,0.45,0,0,2,0,"main","kmed x 2",1,"NT (Online)","Computer",0
"819",179,"6083f5368c421b6547fd05c1",0,483,0.45,0,3.142,1,0,"main","kmed x 2",1,"NT (Online)","Computer",0
"820",180,"6083f5368c421b6547fd05c1",1,464,0.45,0,0,2,0,"main","kmed x 2",1,"NT (Online)","Computer",0
"821",181,"6083f5368c421b6547fd05c1",0,471,0.3,60,3.142,1,0,"main","kmed",1,"NT (Online)","Computer",0
"822",182,"6083f5368c421b6547fd05c1",1,499,0.45,0,0,2,0,"main","kmed x 2",1,"NT (Online)","Computer",0
"823",183,"6083f5368c421b6547fd05c1",1,489,0.3,0,0,2,0,"main","kmed",1,"NT (Online)","Computer",0
"824",184,"6083f5368c421b6547fd05c1",0,510,0.075,0,0,1,0,"main","kmed x 0.5",0,"NT (Online)","Computer",0
"825",185,"6083f5368c421b6547fd05c1",1,403,0.45,0,0,2,0,"main","kmed x 2",1,"NT (Online)","Computer",0
"826",186,"6083f5368c421b6547fd05c1",1,1426,0.3,60,0,2,0,"main","kmed",1,"NT (Online)","Computer",0
"827",187,"6083f5368c421b6547fd05c1",0,689,0.3,0,3.142,1,0,"main","kmed",1,"NT (Online)","Computer",0
"828",188,"6083f5368c421b6547fd05c1",1,472,0.3,0,0,2,0,"main","kmed",1,"NT (Online)","Computer",0
"829",189,"6083f5368c421b6547fd05c1",0,452,0.45,0,3.142,1,0,"main","kmed x 2",1,"NT (Online)","Computer",0
"830",190,"6083f5368c421b6547fd05c1",0,493,0.45,0,3.142,1,0,"main","kmed x 2",1,"NT (Online)","Computer",0
"831",191,"6083f5368c421b6547fd05c1",0,429,0.45,60,3.142,1,0,"main","kmed x 2",1,"NT (Online)","Computer",0
"832",192,"6083f5368c421b6547fd05c1",0,640,0.075,0,0,1,0,"main","kmed x 0.5",0,"NT (Online)","Computer",0
"833",193,"6083f5368c421b6547fd05c1",1,737,0.3,0,0,2,0,"main","kmed",1,"NT (Online)","Computer",0
"834",194,"6083f5368c421b6547fd05c1",0,728,0.075,0,3.142,1,0,"main","kmed x 0.5",1,"NT (Online)","Computer",0
"835",195,"6083f5368c421b6547fd05c1",1,1395,0.075,0,3.142,2,0,"main","kmed x 0.5",0,"NT (Online)","Computer",0
"836",196,"6083f5368c421b6547fd05c1",0,947,0.075,60,3.142,1,0,"main","kmed x 0.5",1,"NT (Online)","Computer",0
"837",197,"6083f5368c421b6547fd05c1",0,754,0.45,0,3.142,1,0,"main","kmed x 2",1,"NT (Online)","Computer",0
"838",198,"6083f5368c421b6547fd05c1",0,998,0.3,0,3.142,1,0,"main","kmed",1,"NT (Online)","Computer",0
"839",199,"6083f5368c421b6547fd05c1",1,485,0.3,0,0,2,0,"main","kmed",1,"NT (Online)","Computer",0
"840",200,"6083f5368c421b6547fd05c1",0,429,0.3,0,3.142,1,0,"main","kmed",1,"NT (Online)","Computer",0
"841",201,"6083f5368c421b6547fd05c1",0,402,0.075,60,3.142,1,0,"main","kmed x 0.5",1,"NT (Online)","Computer",0
"842",202,"6083f5368c421b6547fd05c1",0,470,0.45,0,3.142,1,0,"main","kmed x 2",1,"NT (Online)","Computer",0
"843",203,"6083f5368c421b6547fd05c1",1,474,0.45,0,0,2,0,"main","kmed x 2",1,"NT (Online)","Computer",0
"844",204,"6083f5368c421b6547fd05c1",1,450,0.45,0,0,2,0,"main","kmed x 2",1,"NT (Online)","Computer",0
"845",205,"6083f5368c421b6547fd05c1",0,442,0.075,0,3.142,1,0,"main","kmed x 0.5",1,"NT (Online)","Computer",0
"846",206,"6083f5368c421b6547fd05c1",0,727,0.075,60,0,1,0,"main","kmed x 0.5",0,"NT (Online)","Computer",0
"847",207,"6083f5368c421b6547fd05c1",0,467,0.075,0,0,1,0,"main","kmed x 0.5",0,"NT (Online)","Computer",0
"848",208,"6083f5368c421b6547fd05c1",1,164,0.075,0,0,2,0,"main","kmed x 0.5",1,"NT (Online)","Computer",0
"849",209,"6083f5368c421b6547fd05c1",0,2790,0.075,0,0,1,0,"main","kmed x 0.5",0,"NT (Online)","Computer",0
"850",210,"6083f5368c421b6547fd05c1",1,521,0.075,0,3.142,2,0,"main","kmed x 0.5",0,"NT (Online)","Computer",0
"851",211,"6083f5368c421b6547fd05c1",1,513,0.3,70,0,2,0,"main","kmed",1,"NT (Online)","Computer",0
"852",212,"6083f5368c421b6547fd05c1",0,445,0.3,0,3.142,1,0,"main","kmed",1,"NT (Online)","Computer",0
"853",213,"6083f5368c421b6547fd05c1",1,500,0.45,0,0,2,0,"main","kmed x 2",1,"NT (Online)","Computer",0
"854",214,"6083f5368c421b6547fd05c1",1,411,0.45,0,0,2,0,"main","kmed x 2",1,"NT (Online)","Computer",0
"855",215,"6083f5368c421b6547fd05c1",0,518,0.45,0,3.142,1,0,"main","kmed x 2",1,"NT (Online)","Computer",0
"856",216,"6083f5368c421b6547fd05c1",1,1010,0.3,50,0,2,0,"main","kmed",1,"NT (Online)","Computer",0
"857",217,"6083f5368c421b6547fd05c1",1,420,0.45,0,0,2,0,"main","kmed x 2",1,"NT (Online)","Computer",0
"858",218,"6083f5368c421b6547fd05c1",1,421,0.3,0,0,2,0,"main","kmed",1,"NT (Online)","Computer",0
"859",219,"6083f5368c421b6547fd05c1",1,489,0.45,0,0,2,0,"main","kmed x 2",1,"NT (Online)","Computer",0
"860",220,"6083f5368c421b6547fd05c1",0,373,0.3,0,3.142,1,0,"main","kmed",1,"NT (Online)","Computer",0
"861",221,"6083f5368c421b6547fd05c1",0,218,0.45,70,3.142,1,0,"main","kmed x 2",1,"NT (Online)","Computer",0
"862",222,"6083f5368c421b6547fd05c1",1,409,0.45,0,0,2,0,"main","kmed x 2",1,"NT (Online)","Computer",0
"863",223,"6083f5368c421b6547fd05c1",0,532,0.075,0,3.142,1,0,"main","kmed x 0.5",1,"NT (Online)","Computer",0
"864",224,"6083f5368c421b6547fd05c1",1,431,0.45,0,0,2,0,"main","kmed x 2",1,"NT (Online)","Computer",0
"865",225,"6083f5368c421b6547fd05c1",1,569,0.3,0,0,2,0,"main","kmed",1,"NT (Online)","Computer",0
"866",226,"6083f5368c421b6547fd05c1",0,410,0.3,70,3.142,1,0,"main","kmed",1,"NT (Online)","Computer",0
"867",227,"6083f5368c421b6547fd05c1",0,461,0.45,0,3.142,1,0,"main","kmed x 2",1,"NT (Online)","Computer",0
"868",228,"6083f5368c421b6547fd05c1",1,477,0.45,0,0,2,0,"main","kmed x 2",1,"NT (Online)","Computer",0
"869",229,"6083f5368c421b6547fd05c1",0,381,0.3,0,3.142,1,0,"main","kmed",1,"NT (Online)","Computer",0
"870",230,"6083f5368c421b6547fd05c1",0,404,0.3,0,3.142,1,0,"main","kmed",1,"NT (Online)","Computer",0
"871",231,"6083f5368c421b6547fd05c1",0,457,0.45,80,3.142,1,0,"main","kmed x 2",1,"NT (Online)","Computer",0
"872",232,"6083f5368c421b6547fd05c1",1,883,0.3,0,0,2,0,"main","kmed",1,"NT (Online)","Computer",0
"873",233,"6083f5368c421b6547fd05c1",1,444,0.3,0,0,2,0,"main","kmed",1,"NT (Online)","Computer",0
"874",234,"6083f5368c421b6547fd05c1",1,425,0.45,0,0,2,0,"main","kmed x 2",1,"NT (Online)","Computer",0
"875",235,"6083f5368c421b6547fd05c1",0,411,0.45,0,3.142,1,0,"main","kmed x 2",1,"NT (Online)","Computer",0
"876",236,"6083f5368c421b6547fd05c1",0,428,0.3,90,3.142,1,0,"main","kmed",1,"NT (Online)","Computer",0
"877",237,"6083f5368c421b6547fd05c1",1,904,0.3,0,0,2,0,"main","kmed",1,"NT (Online)","Computer",0
"878",238,"6083f5368c421b6547fd05c1",0,469,0.45,0,3.142,1,0,"main","kmed x 2",1,"NT (Online)","Computer",0
"879",239,"6083f5368c421b6547fd05c1",1,474,0.3,0,0,2,0,"main","kmed",1,"NT (Online)","Computer",0
"880",240,"6083f5368c421b6547fd05c1",0,454,0.075,0,0,1,0,"main","kmed x 0.5",0,"NT (Online)","Computer",0
"881",241,"6083f5368c421b6547fd05c1",0,711,0.075,50,3.142,1,0,"main","kmed x 0.5",1,"NT (Online)","Computer",0
"882",242,"6083f5368c421b6547fd05c1",1,445,0.3,0,0,2,0,"main","kmed",1,"NT (Online)","Computer",0
"883",243,"6083f5368c421b6547fd05c1",1,438,0.45,0,0,2,0,"main","kmed x 2",1,"NT (Online)","Computer",0
"884",244,"6083f5368c421b6547fd05c1",0,972,0.075,0,3.142,1,0,"main","kmed x 0.5",1,"NT (Online)","Computer",0
"885",245,"6083f5368c421b6547fd05c1",0,548,0.3,0,3.142,1,0,"main","kmed",1,"NT (Online)","Computer",0
"886",246,"6083f5368c421b6547fd05c1",0,843,0.075,50,3.142,1,0,"main","kmed x 0.5",1,"NT (Online)","Computer",0
"887",247,"6083f5368c421b6547fd05c1",0,441,0.45,0,3.142,1,0,"main","kmed x 2",1,"NT (Online)","Computer",0
"888",248,"6083f5368c421b6547fd05c1",1,412,0.45,0,0,2,0,"main","kmed x 2",1,"NT (Online)","Computer",0
"889",249,"6083f5368c421b6547fd05c1",1,344,0.45,0,0,2,0,"main","kmed x 2",1,"NT (Online)","Computer",0
"890",250,"6083f5368c421b6547fd05c1",1,388,0.45,0,0,2,0,"main","kmed x 2",1,"NT (Online)","Computer",0
"891",251,"6083f5368c421b6547fd05c1",0,403,0.075,70,3.142,1,0,"main","kmed x 0.5",1,"NT (Online)","Computer",0
"892",252,"6083f5368c421b6547fd05c1",1,379,0.3,0,0,2,0,"main","kmed",1,"NT (Online)","Computer",0
"893",253,"6083f5368c421b6547fd05c1",1,297,0.3,0,0,2,0,"main","kmed",1,"NT (Online)","Computer",0
"894",254,"6083f5368c421b6547fd05c1",0,36,0.3,0,3.142,1,0,"main","kmed",1,"NT (Online)","Computer",0
"895",255,"6083f5368c421b6547fd05c1",1,717,0.3,0,0,2,0,"main","kmed",1,"NT (Online)","Computer",0
"896",256,"6083f5368c421b6547fd05c1",0,646,0.075,50,0,1,0,"main","kmed x 0.5",0,"NT (Online)","Computer",0
"897",257,"6083f5368c421b6547fd05c1",1,413,0.45,0,0,2,0,"main","kmed x 2",1,"NT (Online)","Computer",0
"898",258,"6083f5368c421b6547fd05c1",0,514,0.075,0,0,1,0,"main","kmed x 0.5",0,"NT (Online)","Computer",0
"899",259,"6083f5368c421b6547fd05c1",1,417,0.3,0,0,2,0,"main","kmed",1,"NT (Online)","Computer",0
"900",260,"6083f5368c421b6547fd05c1",1,641,0.3,0,0,2,0,"main","kmed",1,"NT (Online)","Computer",0
"901",261,"6083f5368c421b6547fd05c1",0,446,0.3,90,3.142,1,0,"main","kmed",1,"NT (Online)","Computer",0
"902",262,"6083f5368c421b6547fd05c1",1,599,0.3,0,0,2,0,"main","kmed",1,"NT (Online)","Computer",0
"903",263,"6083f5368c421b6547fd05c1",0,484,0.3,0,3.142,1,0,"main","kmed",1,"NT (Online)","Computer",0
"904",264,"6083f5368c421b6547fd05c1",0,511,0.45,0,3.142,1,0,"main","kmed x 2",1,"NT (Online)","Computer",0
"905",265,"6083f5368c421b6547fd05c1",1,415,0.45,0,0,2,0,"main","kmed x 2",1,"NT (Online)","Computer",0
"906",266,"6083f5368c421b6547fd05c1",0,686,0.3,50,0,1,0,"main","kmed",0,"NT (Online)","Computer",0
"907",267,"6083f5368c421b6547fd05c1",0,403,0.45,0,3.142,1,0,"main","kmed x 2",1,"NT (Online)","Computer",0
"908",268,"6083f5368c421b6547fd05c1",1,677,0.3,0,0,2,0,"main","kmed",1,"NT (Online)","Computer",0
"909",269,"6083f5368c421b6547fd05c1",1,429,0.45,0,0,2,0,"main","kmed x 2",1,"NT (Online)","Computer",0
"910",270,"6083f5368c421b6547fd05c1",0,1050,0.3,0,3.142,1,0,"main","kmed",1,"NT (Online)","Computer",0
"911",271,"6083f5368c421b6547fd05c1",0,556,0.075,50,3.142,1,0,"main","kmed x 0.5",1,"NT (Online)","Computer",0
"912",272,"6083f5368c421b6547fd05c1",1,413,0.45,0,0,2,0,"main","kmed x 2",1,"NT (Online)","Computer",0
"913",273,"6083f5368c421b6547fd05c1",0,506,0.075,0,3.142,1,0,"main","kmed x 0.5",1,"NT (Online)","Computer",0
"914",274,"6083f5368c421b6547fd05c1",0,430,0.45,0,3.142,1,0,"main","kmed x 2",1,"NT (Online)","Computer",0
"915",275,"6083f5368c421b6547fd05c1",1,465,0.3,0,0,2,0,"main","kmed",1,"NT (Online)","Computer",0
"916",276,"6083f5368c421b6547fd05c1",0,379,0.3,90,3.142,1,0,"main","kmed",1,"NT (Online)","Computer",0
"917",277,"6083f5368c421b6547fd05c1",1,410,0.3,0,0,2,0,"main","kmed",1,"NT (Online)","Computer",0
"918",278,"6083f5368c421b6547fd05c1",1,276,0.45,0,0,2,0,"main","kmed x 2",1,"NT (Online)","Computer",0
"919",279,"6083f5368c421b6547fd05c1",0,226,0.3,0,3.142,1,0,"main","kmed",1,"NT (Online)","Computer",0
"920",280,"6083f5368c421b6547fd05c1",0,337,0.45,0,3.142,1,0,"main","kmed x 2",1,"NT (Online)","Computer",0
"921",281,"6083f5368c421b6547fd05c1",0,422,0.45,100,3.142,1,0,"main","kmed x 2",1,"NT (Online)","Computer",0
"922",282,"6083f5368c421b6547fd05c1",1,371,0.45,0,0,2,0,"main","kmed x 2",1,"NT (Online)","Computer",0
"923",283,"6083f5368c421b6547fd05c1",0,363,0.45,0,3.142,1,0,"main","kmed x 2",1,"NT (Online)","Computer",0
"924",284,"6083f5368c421b6547fd05c1",1,434,0.45,0,0,2,0,"main","kmed x 2",1,"NT (Online)","Computer",0
"925",285,"6083f5368c421b6547fd05c1",1,661,0.3,0,0,2,0,"main","kmed",1,"NT (Online)","Computer",0
"926",286,"6083f5368c421b6547fd05c1",0,455,0.45,90,3.142,1,0,"main","kmed x 2",1,"NT (Online)","Computer",0
"927",287,"6083f5368c421b6547fd05c1",1,517,0.3,0,0,2,0,"main","kmed",1,"NT (Online)","Computer",0
"928",288,"6083f5368c421b6547fd05c1",0,418,0.3,0,3.142,1,0,"main","kmed",1,"NT (Online)","Computer",0
"929",289,"6083f5368c421b6547fd05c1",0,569,0.45,0,3.142,1,0,"main","kmed x 2",1,"NT (Online)","Computer",0
"930",290,"6083f5368c421b6547fd05c1",1,421,0.45,0,0,2,0,"main","kmed x 2",1,"NT (Online)","Computer",0
"931",291,"6083f5368c421b6547fd05c1",1,695,0.075,50,0,2,0,"main","kmed x 0.5",1,"NT (Online)","Computer",0
"932",292,"6083f5368c421b6547fd05c1",0,1145,0.075,0,3.142,1,0,"main","kmed x 0.5",1,"NT (Online)","Computer",0
"933",293,"6083f5368c421b6547fd05c1",1,409,0.45,0,0,2,0,"main","kmed x 2",1,"NT (Online)","Computer",0
"934",294,"6083f5368c421b6547fd05c1",0,194,0.45,0,3.142,1,0,"main","kmed x 2",1,"NT (Online)","Computer",0
"935",295,"6083f5368c421b6547fd05c1",0,474,0.45,0,3.142,1,0,"main","kmed x 2",1,"NT (Online)","Computer",0
"936",296,"6083f5368c421b6547fd05c1",0,469,0.075,50,3.142,1,0,"main","kmed x 0.5",1,"NT (Online)","Computer",0
"937",297,"6083f5368c421b6547fd05c1",1,399,0.45,0,0,2,0,"main","kmed x 2",1,"NT (Online)","Computer",0
"938",298,"6083f5368c421b6547fd05c1",1,999,0.3,0,0,2,0,"main","kmed",1,"NT (Online)","Computer",0
"939",299,"6083f5368c421b6547fd05c1",0,427,0.45,0,3.142,1,0,"main","kmed x 2",1,"NT (Online)","Computer",0
"940",300,"6083f5368c421b6547fd05c1",1,417,0.45,0,0,2,0,"main","kmed x 2",1,"NT (Online)","Computer",0
"941",301,"6083f5368c421b6547fd05c1",0,400,0.45,80,3.142,1,0,"main","kmed x 2",1,"NT (Online)","Computer",0
"942",302,"6083f5368c421b6547fd05c1",0,416,0.45,0,3.142,1,0,"main","kmed x 2",1,"NT (Online)","Computer",0
"943",303,"6083f5368c421b6547fd05c1",1,383,0.45,0,0,2,0,"main","kmed x 2",1,"NT (Online)","Computer",0
"944",304,"6083f5368c421b6547fd05c1",0,436,0.45,0,3.142,1,0,"main","kmed x 2",1,"NT (Online)","Computer",0
"945",305,"6083f5368c421b6547fd05c1",1,415,0.3,0,0,2,0,"main","kmed",1,"NT (Online)","Computer",0
